{
  "resourceType": "Bundle",
  "id": "6129132702c62a011f2e604d",
  "type": "transaction",
  "entry": [
    {
      "fullUrl": "https://madie.cms.gov/Patient/cf9639de-9323-4c66-9840-ff37895036e8",
      "resource": {
        "resourceType": "Patient",
        "id": "cf9639de-9323-4c66-9840-ff37895036e8",
        "meta": {
          "profile": [
            "http://hl7.org/fhir/us/qicore/StructureDefinition/qicore-patient"
          ]
        },
        "text": {
          "status": "generated",
          "div": "<div xmlns=\"http://www.w3.org/1999/xhtml\"><div class=\"hapiHeaderText\">EncEndsBeforeMP <b>IPFAIL </b></div><table class=\"hapiPropertyTable\"><tbody><tr><td>Identifier</td><td>136bc360ca73a2bb45d29c726b2ca601</td></tr><tr><td>Date of birth</td><td><span>21 August 1993</span></td></tr></tbody></table></div>"
        },
        "extension": [
          {
            "url": "http://hl7.org/fhir/us/core/StructureDefinition/us-core-race",
            "extension": [
              {
                "url": "ombCategory",
                "valueCoding": {
                  "system": "urn:oid:2.16.840.1.113883.6.238",
                  "code": "1002-5",
                  "display": "American Indian or Alaska Native",
                  "userSelected": true
                }
              },
              {
                "url": "text",
                "valueString": "American Indian or Alaska Native"
              }
            ]
          },
          {
            "url": "http://hl7.org/fhir/us/core/StructureDefinition/us-core-ethnicity",
            "extension": [
              {
                "url": "ombCategory",
                "valueCoding": {
                  "system": "urn:oid:2.16.840.1.113883.6.238",
                  "code": "2135-2",
                  "display": "Hispanic or Latino",
                  "userSelected": true
                }
              },
              {
                "url": "text",
                "valueString": "Hispanic or Latino"
              }
            ]
          }
        ],
        "identifier": [
          {
            "type": {
              "coding": [
                {
                  "system": "http://terminology.hl7.org/CodeSystem/v2-0203",
                  "code": "MR"
                }
              ]
            },
            "system": "https://bonnie-fhir.healthit.gov/",
            "value": "6129132702c62a011f2e604d"
          }
        ],
        "active": true,
        "name": [
          {
            "use": "usual",
            "family": "IPFail",
            "given": [
              "EncEndsBeforeMP"
            ]
          }
        ],
        "gender": "male",
        "birthDate": "2002-08-21"
      },
      "request": {
        "method": "PUT",
        "url": "Patient/cf9639de-9323-4c66-9840-ff37895036e8"
      }
    },
    {
      "fullUrl": "https://madie.cms.gov/Encounter/9fe7d8df-65cb-4df2-b181-ff0a14dea774",
      "resource": {
        "resourceType": "Encounter",
        "id": "9fe7d8df-65cb-4df2-b181-ff0a14dea774",
        "meta": {
          "profile": [
            "http://hl7.org/fhir/us/qicore/StructureDefinition/qicore-encounter"
          ]
        },
        "status": "finished",
        "class": {
          "system": "http://terminology.hl7.org/CodeSystem/v3-ActCode",
          "code": "IMP",
          "display": "inpatient encounter",
          "userSelected": true
        },
        "type": [
          {
            "coding": [
              {
                "system": "http://snomed.info/sct",
                "code": "32485007"
              }
            ]
          }
        ],
        "subject": {
          "reference": "Patient/cf9639de-9323-4c66-9840-ff37895036e8"
        },
        "period": {
          "start": "2023-12-20T09:30:00.000+00:00",
          "end": "2023-12-23T10:30:00.000+00:00"
        },
        "length": {
          "value": 3,
          "unit": "days"
        },
        "diagnosis": [
          {
            "condition": {
              "reference": "Condition/31d3b816-785e-4563-99b9-bd46f1c5645a"
            },
            "use": {
              "coding": [
                {
                  "system": "http://terminology.hl7.org/CodeSystem/diagnosis-role",
                  "code": "billing",
                  "display": "Billing"
                }
              ]
            },
            "rank": 1
          }
        ]
      },
      "request": {
        "method": "PUT",
        "url": "Encounter/9fe7d8df-65cb-4df2-b181-ff0a14dea774"
      }
    },
    {
      "fullUrl": "https://madie.cms.gov/Condition/31d3b816-785e-4563-99b9-bd46f1c5645a",
      "resource": {
        "resourceType": "Condition",
        "id": "31d3b816-785e-4563-99b9-bd46f1c5645a",
        "meta": {
          "profile": [
            "http://hl7.org/fhir/us/qicore/StructureDefinition/qicore-condition"
          ]
        },
        "clinicalStatus": {
          "coding": [
            {
              "system": "http://terminology.hl7.org/CodeSystem/condition-clinical",
              "code": "active"
            }
          ]
        },
        "verificationStatus": {
          "coding": [
            {
              "system": "http://terminology.hl7.org/CodeSystem/condition-ver-status",
              "code": "confirmed"
            }
          ]
        },
        "category": [
          {
            "coding": [
              {
                "system": "http://terminology.hl7.org/CodeSystem/condition-category",
                "code": "encounter-diagnosis",
                "display": "Encounter Diagnosis"
              }
            ]
          }
        ],
        "code": {
          "coding": [
            {
              "system": "http://snomed.info/sct",
              "version": "2020-09",
              "code": "111297002",
              "display": "Nonparalytic stroke (disorder)",
              "userSelected": true
            }
          ]
        },
        "subject": {
          "reference": "Patient/cf9639de-9323-4c66-9840-ff37895036e8"
        },
        "recordedDate": "2025-07-15T08:00:00.000+00:00"
      },
      "request": {
        "method": "PUT",
        "url": "Condition/31d3b816-785e-4563-99b9-bd46f1c5645a"
      }
    },
    {
      "fullUrl": "https://madie.cms.gov/Coverage/ea8091cb-0faa-43c2-9bd7-a6730c71dbd1",
      "resource": {
        "resourceType": "Coverage",
        "id": "ea8091cb-0faa-43c2-9bd7-a6730c71dbd1",
        "meta": {
          "profile": [
            "http://hl7.org/fhir/us/qicore/StructureDefinition/qicore-coverage"
          ]
        },
        "status": "active",
        "beneficiary": {
          "reference": "Patient/cf9639de-9323-4c66-9840-ff37895036e8"
        },
        "payor": [
          {
            "reference": "Organization/7362c6a5-4fba-4b07-86c6-6b7dd68c5082"
          }
        ]
      },
      "request": {
        "method": "PUT",
        "url": "Coverage/ea8091cb-0faa-43c2-9bd7-a6730c71dbd1"
      }
    },
    {
      "fullUrl": "https://madie.cms.gov/Organization/7362c6a5-4fba-4b07-86c6-6b7dd68c5082",
      "resource": {
        "resourceType": "Organization",
        "id": "7362c6a5-4fba-4b07-86c6-6b7dd68c5082",
        "meta": {
          "profile": [
            "http://hl7.org/fhir/us/qicore/StructureDefinition/qicore-organization"
          ]
        },
        "identifier": [
          {
            "use": "temp",
            "system": "urn:oid:2.16.840.1.113883.4.4",
            "value": "21-3259825"
          }
        ],
        "active": true,
        "type": [
          {
            "coding": [
              {
                "system": "http://terminology.hl7.org/CodeSystem/organization-type",
                "code": "pay",
                "display": "Payer"
              }
            ]
          }
        ],
        "name": "Blue Cross Blue Shield of Texas",
        "telecom": [
          {
            "system": "phone",
            "value": "(+1) 972-766-6900"
          }
        ],
        "address": [
          {
            "use": "billing",
            "type": "postal",
            "line": [
              "P.O. Box 660044"
            ],
            "city": "Dallas",
            "state": "TX",
            "postalCode": "75266-0044",
            "country": "USA"
          }
        ]
      },
      "request": {
        "method": "PUT",
        "url": "Organization/7362c6a5-4fba-4b07-86c6-6b7dd68c5082"
      }
    },
    {
      "fullUrl": "https://madie.cms.gov/MeasureReport/0956f5ef-4553-4bfc-9b2b-67d37fa1f48c",
      "resource": {
        "resourceType": "MeasureReport",
        "id": "0956f5ef-4553-4bfc-9b2b-67d37fa1f48c",
        "meta": {
          "profile": [
            "http://hl7.org/fhir/us/cqfmeasures/StructureDefinition/test-case-cqfm"
          ]
        },
        "contained": [
          {
            "resourceType": "Parameters",
            "id": "c6273d08-8215-47ea-ab8b-b71652ee3f6b-parameters",
            "parameter": [
              {
                "name": "subject",
                "valueString": "cf9639de-9323-4c66-9840-ff37895036e8"
              }
            ]
          }
        ],
        "extension": [
          {
            "url": "http://hl7.org/fhir/us/cqfmeasures/StructureDefinition/cqfm-inputParameters",
            "valueReference": {
              "reference": "#c6273d08-8215-47ea-ab8b-b71652ee3f6b-parameters"
            }
          },
          {
            "url": "http://hl7.org/fhir/us/cqfmeasures/StructureDefinition/cqfm-testCaseDescription",
            "valueMarkdown": "Patient is 18 with Non-Elective Inpatient Encounter ends before MP with principal diagnosis of stroke\n"
          }
        ],
        "modifierExtension": [
          {
            "url": "http://hl7.org/fhir/us/cqfmeasures/StructureDefinition/cqfm-isTestCase",
            "valueBoolean": true
          }
        ],
        "status": "complete",
        "type": "individual",
        "measure": "https://madie.cms.gov/Measure/DischargedonAntithromboticTherapyFHIR",
        "period": {
          "start": "2025-01-01",
          "end": "2025-12-31"
        },
        "group": [
          {
            "population": [
              {
                "code": {
                  "coding": [
                    {
                      "system": "http://terminology.hl7.org/CodeSystem/measure-population",
                      "code": "initial-population",
                      "display": "Initial Population"
                    }
                  ]
                },
                "count": 0
              },
              {
                "code": {
                  "coding": [
                    {
                      "system": "http://terminology.hl7.org/CodeSystem/measure-population",
                      "code": "denominator",
                      "display": "Denominator"
                    }
                  ]
                },
                "count": 0
              },
              {
                "code": {
                  "coding": [
                    {
                      "system": "http://terminology.hl7.org/CodeSystem/measure-population",
                      "code": "denominator-exclusion",
                      "display": "Denominator Exclusion"
                    }
                  ]
                },
                "count": 0
              },
              {
                "code": {
                  "coding": [
                    {
                      "system": "http://terminology.hl7.org/CodeSystem/measure-population",
                      "code": "numerator",
                      "display": "Numerator"
                    }
                  ]
                },
                "count": 0
              },
              {
                "code": {
                  "coding": [
                    {
                      "system": "http://terminology.hl7.org/CodeSystem/measure-population",
                      "code": "denominator-exception",
                      "display": "Denominator Exception"
                    }
                  ]
                },
                "count": 0
              }
            ]
          }
        ],
        "evaluatedResource": [
          {
            "reference": "Patient/cf9639de-9323-4c66-9840-ff37895036e8"
          },
          {
            "reference": "Encounter/9fe7d8df-65cb-4df2-b181-ff0a14dea774"
          },
          {
            "reference": "Condition/31d3b816-785e-4563-99b9-bd46f1c5645a"
          },
          {
            "reference": "Coverage/ea8091cb-0faa-43c2-9bd7-a6730c71dbd1"
          },
          {
            "reference": "Organization/7362c6a5-4fba-4b07-86c6-6b7dd68c5082"
          }
        ]
      },
      "request": {
        "method": "PUT",
        "url": "MeasureReport/0956f5ef-4553-4bfc-9b2b-67d37fa1f48c"
      }
    }
  ]
}