{"resourceType":"Bundle","id":"tests-8032df0c-0299-458a-832b-c5ceb02676b0-bundle","type":"transaction","entry":[{"fullUrl":"https://madie.cms.gov/Patient/8032df0c-0299-458a-832b-c5ceb02676b0","resource":{"resourceType":"Patient","id":"8032df0c-0299-458a-832b-c5ceb02676b0","meta":{"profile":["http://hl7.org/fhir/us/qicore/StructureDefinition/qicore-patient"]},"text":{"status":"generated","div":"<div xmlns=\"http://www.w3.org/1999/xhtml\"><div class=\"hapiHeaderText\">RISKHctRsltDtTimeEQDelStart <b>RISKFail </b></div><table class=\"hapiPropertyTable\"><tbody><tr><td>Date of birth</td><td><span>01 February 2004</span></td></tr></tbody></table></div>"},"extension":[{"url":"http://hl7.org/fhir/us/core/StructureDefinition/us-core-race","extension":[{"url":"ombCategory","valueCoding":{"system":"urn:oid:2.16.840.1.113883.6.238","code":"1002-5","display":"American Indian or Alaska Native","userSelected":true}},{"url":"text","valueString":"American Indian or Alaska Native"}]},{"url":"http://hl7.org/fhir/us/core/StructureDefinition/us-core-ethnicity","extension":[{"url":"ombCategory","valueCoding":{"system":"urn:oid:2.16.840.1.113883.6.238","code":"2135-2","display":"Hispanic or Latino","userSelected":true}},{"url":"text","valueString":"Hispanic or Latino"}]}],"identifier":[{"type":{"coding":[{"system":"http://terminology.hl7.org/CodeSystem/v2-0203","code":"MR"}]},"system":"https://bonnie-fhir.healthit.gov/","value":"6359776b6aee9629c8298235"}],"active":true,"name":[{"use":"usual","family":"RiskFail","given":["RISKHctRsltDtTimeEQDelStart"]}],"gender":"female","birthDate":"2004-02-01"},"request":{"method":"PUT","url":"Patient/8032df0c-0299-458a-832b-c5ceb02676b0"}},{"fullUrl":"https://madie.cms.gov/Observation/da4af7a2-a616-4ceb-b737-024b683f79b8","resource":{"resourceType":"Observation","id":"da4af7a2-a616-4ceb-b737-024b683f79b8","meta":{"profile":["http://hl7.org/fhir/us/qicore/StructureDefinition/qicore-observation"]},"status":"final","category":[{"coding":[{"system":"http://terminology.hl7.org/CodeSystem/observation-category","code":"exam","display":"exam","userSelected":true}]}],"code":{"coding":[{"system":"http://loinc.org","code":"93857-1"}]},"subject":{"reference":"Patient/8032df0c-0299-458a-832b-c5ceb02676b0"},"effectiveDateTime":"2024-02-01T08:00:00.000+00:00","valueDateTime":"2024-02-01T08:00:00+00:00"},"request":{"method":"PUT","url":"Observation/da4af7a2-a616-4ceb-b737-024b683f79b8"}},{"fullUrl":"https://madie.cms.gov/Observation/fa235271-1d0e-49b0-b378-9ec7cac4d097","resource":{"resourceType":"Observation","id":"fa235271-1d0e-49b0-b378-9ec7cac4d097","meta":{"profile":["http://hl7.org/fhir/us/qicore/StructureDefinition/qicore-observation"]},"status":"final","category":[{"coding":[{"system":"http://terminology.hl7.org/CodeSystem/observation-category","code":"exam","display":"exam","userSelected":true}]}],"code":{"coding":[{"system":"http://loinc.org","code":"11884-4"}]},"subject":{"reference":"Patient/8032df0c-0299-458a-832b-c5ceb02676b0"},"effectiveDateTime":"2024-02-01T08:00:00.000+00:00","valueQuantity":{"value":21,"system":"http://unitsofmeasure.org","code":"wk"}},"request":{"method":"PUT","url":"Observation/fa235271-1d0e-49b0-b378-9ec7cac4d097"}},{"fullUrl":"https://madie.cms.gov/Encounter/f9de2d4f-72b4-4e70-8905-f4f4f4811f41","resource":{"resourceType":"Encounter","id":"f9de2d4f-72b4-4e70-8905-f4f4f4811f41","meta":{"profile":["http://hl7.org/fhir/us/qicore/StructureDefinition/qicore-encounter"]},"status":"finished","class":{"system":"http://terminology.hl7.org/CodeSystem/v3-ActCode","code":"IMP","display":"inpatient encounter"},"type":[{"coding":[{"system":"http://snomed.info/sct","code":"183452005"}]}],"subject":{"reference":"Patient/8032df0c-0299-458a-832b-c5ceb02676b0"},"period":{"start":"2024-02-01T08:00:00.000Z","end":"2024-02-05T08:15:00.000Z"}},"request":{"method":"PUT","url":"Encounter/f9de2d4f-72b4-4e70-8905-f4f4f4811f41"}},{"fullUrl":"https://madie.cms.gov/Encounter/c9b5f195-9865-421c-859b-81f73e368de1","resource":{"resourceType":"Encounter","id":"c9b5f195-9865-421c-859b-81f73e368de1","meta":{"profile":["http://hl7.org/fhir/us/qicore/StructureDefinition/qicore-encounter"]},"status":"finished","class":{"system":"http://terminology.hl7.org/CodeSystem/v3-ActCode","code":"EMER","display":"emergency"},"type":[{"coding":[{"system":"http://snomed.info/sct","code":"4525004"}]}],"subject":{"reference":"Patient/8032df0c-0299-458a-832b-c5ceb02676b0"},"period":{"start":"2024-02-01T07:00:00.000Z","end":"2024-02-01T07:59:00.000Z"}},"request":{"method":"PUT","url":"Encounter/c9b5f195-9865-421c-859b-81f73e368de1"}},{"fullUrl":"https://madie.cms.gov/Procedure/efa523e9-4ae7-4078-894e-c31e3ab5a16d","resource":{"resourceType":"Procedure","id":"efa523e9-4ae7-4078-894e-c31e3ab5a16d","meta":{"profile":["http://hl7.org/fhir/us/qicore/StructureDefinition/qicore-procedure"]},"extension":[{"url":"http://hl7.org/fhir/us/qicore/StructureDefinition/qicore-recorded","valueDateTime":"2024-02-04T09:35:00-04:00"}],"status":"completed","code":{"coding":[{"system":"http://snomed.info/sct","code":"10745001"}]},"subject":{"reference":"Patient/8032df0c-0299-458a-832b-c5ceb02676b0"},"performedPeriod":{"start":"2024-02-01T08:00:00.000Z","end":"2024-02-05T08:15:00.000Z"}},"request":{"method":"PUT","url":"Procedure/efa523e9-4ae7-4078-894e-c31e3ab5a16d"}},{"fullUrl":"https://madie.cms.gov/Observation/58ae12cc-ebd7-4723-8150-e3f865d8c2de","resource":{"resourceType":"Observation","id":"58ae12cc-ebd7-4723-8150-e3f865d8c2de","meta":{"profile":["http://hl7.org/fhir/us/core/StructureDefinition/us-core-observation-lab"]},"status":"final","category":[{"coding":[{"system":"http://terminology.hl7.org/CodeSystem/observation-category","code":"laboratory","display":"laboratory","userSelected":true}]}],"code":{"coding":[{"system":"http://loinc.org","version":"2.73","code":"20570-8","display":"Hematocrit [Volume Fraction] in Blood","userSelected":true}]},"subject":{"reference":"Patient/8032df0c-0299-458a-832b-c5ceb02676b0"},"effectiveDateTime":"2024-02-01T08:00:00.000+00:00","issued":"2024-02-01T08:00:00.000+00:00","valueQuantity":{"value":20,"unit":"%"}},"request":{"method":"PUT","url":"Observation/58ae12cc-ebd7-4723-8150-e3f865d8c2de"}},{"fullUrl":"https://madie.cms.gov/MeasureReport/23a5c0f2-ccb4-4dd2-a243-e1dfd0c8a2db","resource":{"resourceType":"MeasureReport","id":"23a5c0f2-ccb4-4dd2-a243-e1dfd0c8a2db","meta":{"profile":["http://hl7.org/fhir/us/cqfmeasures/StructureDefinition/test-case-cqfm"]},"contained":[{"resourceType":"Parameters","id":"9993e0eb-f627-4b80-997d-4bcb462b7346-parameters","parameter":[{"name":"subject","valueString":"8032df0c-0299-458a-832b-c5ceb02676b0"}]}],"extension":[{"url":"http://hl7.org/fhir/us/cqfmeasures/StructureDefinition/cqfm-inputParameters","valueReference":{"reference":"#9993e0eb-f627-4b80-997d-4bcb462b7346-parameters"}},{"url":"http://hl7.org/fhir/us/cqfmeasures/StructureDefinition/cqfm-testCaseDescription","valueMarkdown":"Patient with hematocrit result date/time = delivery date/time \n"}],"modifierExtension":[{"url":"http://hl7.org/fhir/us/cqfmeasures/StructureDefinition/cqfm-isTestCase","valueBoolean":true}],"status":"complete","type":"individual","measure":"https://madie.cms.gov/Measure/SevereObstetricComplicationsFHIR","period":{"start":"2024-01-01","end":"2024-12-31"},"group":[{"population":[{"code":{"coding":[{"system":"http://terminology.hl7.org/CodeSystem/measure-population","code":"initial-population","display":"Initial Population"}]},"count":1},{"code":{"coding":[{"system":"http://terminology.hl7.org/CodeSystem/measure-population","code":"denominator","display":"Denominator"}]},"count":1},{"code":{"coding":[{"system":"http://terminology.hl7.org/CodeSystem/measure-population","code":"denominator-exclusion","display":"Denominator Exclusion"}]},"count":0},{"code":{"coding":[{"system":"http://terminology.hl7.org/CodeSystem/measure-population","code":"numerator","display":"Numerator"}]},"count":0}]}],"evaluatedResource":[{"reference":"Patient/8032df0c-0299-458a-832b-c5ceb02676b0"},{"reference":"Observation/da4af7a2-a616-4ceb-b737-024b683f79b8"},{"reference":"Observation/fa235271-1d0e-49b0-b378-9ec7cac4d097"},{"reference":"Encounter/f9de2d4f-72b4-4e70-8905-f4f4f4811f41"},{"reference":"Encounter/c9b5f195-9865-421c-859b-81f73e368de1"},{"reference":"Procedure/efa523e9-4ae7-4078-894e-c31e3ab5a16d"},{"reference":"Observation/58ae12cc-ebd7-4723-8150-e3f865d8c2de"}]},"request":{"method":"PUT","url":"MeasureReport/23a5c0f2-ccb4-4dd2-a243-e1dfd0c8a2db"}}]}