{"resourceType":"Bundle","id":"tests-479b5965-0fef-4d37-b767-03502fd12f84-bundle","type":"transaction","entry":[{"fullUrl":"https://madie.cms.gov/Patient/479b5965-0fef-4d37-b767-03502fd12f84","resource":{"resourceType":"Patient","id":"479b5965-0fef-4d37-b767-03502fd12f84","meta":{"profile":["http://hl7.org/fhir/us/qicore/StructureDefinition/qicore-patient"]},"text":{"status":"generated","div":"<div xmlns=\"http://www.w3.org/1999/xhtml\"><div class=\"hapiHeaderText\">Risk_MorbidObesity<b>RISKPass </b></div><table class=\"hapiPropertyTable\"><tbody><tr><td>Date of birth</td><td><span>01 February 2004</span></td></tr></tbody></table></div>"},"extension":[{"url":"http://hl7.org/fhir/us/core/StructureDefinition/us-core-race","extension":[{"url":"ombCategory","valueCoding":{"system":"urn:oid:2.16.840.1.113883.6.238","code":"1002-5","display":"American Indian or Alaska Native","userSelected":true}},{"url":"text","valueString":"American Indian or Alaska Native"}]},{"url":"http://hl7.org/fhir/us/core/StructureDefinition/us-core-ethnicity","extension":[{"url":"ombCategory","valueCoding":{"system":"urn:oid:2.16.840.1.113883.6.238","code":"2135-2","display":"Hispanic or Latino","userSelected":true}},{"url":"text","valueString":"Hispanic or Latino"}]}],"identifier":[{"type":{"coding":[{"system":"http://terminology.hl7.org/CodeSystem/v2-0203","code":"MR"}]},"system":"https://bonnie-fhir.healthit.gov/","value":"63594c7a6aee9629c82981df"}],"active":true,"name":[{"use":"usual","family":"RiskPass","given":["Risk_MorbidObesity"]}],"gender":"female","birthDate":"2004-02-01"},"request":{"method":"PUT","url":"Patient/479b5965-0fef-4d37-b767-03502fd12f84"}},{"fullUrl":"https://madie.cms.gov/Observation/08376f1d-f87d-4f16-aa3c-bd2993cf0159","resource":{"resourceType":"Observation","id":"08376f1d-f87d-4f16-aa3c-bd2993cf0159","meta":{"profile":["http://hl7.org/fhir/us/qicore/StructureDefinition/qicore-observation"]},"status":"final","category":[{"coding":[{"system":"http://terminology.hl7.org/CodeSystem/observation-category","code":"exam","display":"exam","userSelected":true}]}],"code":{"coding":[{"system":"http://loinc.org","code":"93857-1"}]},"subject":{"reference":"Patient/479b5965-0fef-4d37-b767-03502fd12f84"},"effectiveDateTime":"2024-02-01T08:00:00.000+00:00","valueDateTime":"2024-02-01T08:00:00+00:00"},"request":{"method":"PUT","url":"Observation/08376f1d-f87d-4f16-aa3c-bd2993cf0159"}},{"fullUrl":"https://madie.cms.gov/Observation/d659548b-e090-434f-9931-e1c3605fc347","resource":{"resourceType":"Observation","id":"d659548b-e090-434f-9931-e1c3605fc347","meta":{"profile":["http://hl7.org/fhir/us/qicore/StructureDefinition/qicore-observation"]},"status":"final","category":[{"coding":[{"system":"http://terminology.hl7.org/CodeSystem/observation-category","code":"exam","display":"exam","userSelected":true}]}],"code":{"coding":[{"system":"http://loinc.org","code":"11778-8"}]},"subject":{"reference":"Patient/479b5965-0fef-4d37-b767-03502fd12f84"},"effectiveDateTime":"2024-02-01T08:00:00.000+00:00","valueDateTime":"2024-02-01T00:00:00.000+00:00"},"request":{"method":"PUT","url":"Observation/d659548b-e090-434f-9931-e1c3605fc347"}},{"fullUrl":"https://madie.cms.gov/Encounter/8179c8f7-1466-4d6f-81c2-a23bf2f4f815","resource":{"resourceType":"Encounter","id":"8179c8f7-1466-4d6f-81c2-a23bf2f4f815","meta":{"profile":["http://hl7.org/fhir/us/qicore/StructureDefinition/qicore-encounter"]},"status":"finished","class":{"system":"http://terminology.hl7.org/CodeSystem/v3-ActCode","code":"IMP","display":"inpatient encounter"},"type":[{"coding":[{"system":"http://snomed.info/sct","code":"183452005"}]}],"subject":{"reference":"Patient/479b5965-0fef-4d37-b767-03502fd12f84"},"period":{"start":"2024-02-01T08:00:00.000Z","end":"2024-02-05T08:15:00.000Z"},"diagnosis":[{"extension":[{"url":"http://hl7.org/fhir/us/qicore/StructureDefinition/qicore-encounter-diagnosisPresentOnAdmission","valueCodeableConcept":{"coding":[{"system":"https://www.cms.gov/Medicare/Medicare-Fee-for-Service-Payment/HospitalAcqCond/Coding","code":"Y"}]}}],"condition":{"reference":"Condition/b329e1c8-89eb-4003-876a-ea7b4612efa6"}},{"extension":[{"url":"http://hl7.org/fhir/us/qicore/StructureDefinition/qicore-encounter-diagnosisPresentOnAdmission","valueCodeableConcept":{"coding":[{"system":"https://www.cms.gov/Medicare/Medicare-Fee-for-Service-Payment/HospitalAcqCond/Coding","code":"N"}]}}],"condition":{"reference":"Condition/288f3bc3-9ab8-4393-ba2a-17e3b29a64cf"}}]},"request":{"method":"PUT","url":"Encounter/8179c8f7-1466-4d6f-81c2-a23bf2f4f815"}},{"fullUrl":"https://madie.cms.gov/Procedure/cfe32608-4d46-49d0-9d06-8905684f9d67","resource":{"resourceType":"Procedure","id":"cfe32608-4d46-49d0-9d06-8905684f9d67","meta":{"profile":["http://hl7.org/fhir/us/qicore/StructureDefinition/qicore-procedure"]},"extension":[{"url":"http://hl7.org/fhir/us/qicore/StructureDefinition/qicore-recorded","valueDateTime":"2013-04-05T09:35:00-04:00"}],"status":"completed","code":{"coding":[{"system":"http://snomed.info/sct","code":"10745001"}]},"subject":{"reference":"Patient/479b5965-0fef-4d37-b767-03502fd12f84"},"performedDateTime":"2024-02-01T08:00:00.000+00:00"},"request":{"method":"PUT","url":"Procedure/cfe32608-4d46-49d0-9d06-8905684f9d67"}},{"fullUrl":"https://madie.cms.gov/Condition/288f3bc3-9ab8-4393-ba2a-17e3b29a64cf","resource":{"resourceType":"Condition","id":"288f3bc3-9ab8-4393-ba2a-17e3b29a64cf","meta":{"profile":["http://hl7.org/fhir/us/qicore/StructureDefinition/qicore-condition"]},"category":[{"coding":[{"system":"http://terminology.hl7.org/CodeSystem/condition-category","code":"encounter-diagnosis","display":"Encounter Diagnosis"}]}],"code":{"coding":[{"system":"http://hl7.org/fhir/sid/icd-10-cm","version":"2023","code":"A32.7","display":"Listerial sepsis","userSelected":true}]},"subject":{"reference":"Patient/479b5965-0fef-4d37-b767-03502fd12f84"},"recordedDate":"2024-10-26T08:00:00.000+00:00"},"request":{"method":"PUT","url":"Condition/288f3bc3-9ab8-4393-ba2a-17e3b29a64cf"}},{"fullUrl":"https://madie.cms.gov/Condition/b329e1c8-89eb-4003-876a-ea7b4612efa6","resource":{"resourceType":"Condition","id":"b329e1c8-89eb-4003-876a-ea7b4612efa6","meta":{"profile":["http://hl7.org/fhir/us/qicore/StructureDefinition/qicore-condition"]},"category":[{"coding":[{"system":"http://terminology.hl7.org/CodeSystem/condition-category","code":"encounter-diagnosis","display":"Encounter Diagnosis"}]}],"code":{"coding":[{"system":"http://hl7.org/fhir/sid/icd-10-cm","version":"2023","code":"E66.01","display":"Morbid Obesity","userSelected":true}]},"subject":{"reference":"Patient/479b5965-0fef-4d37-b767-03502fd12f84"},"recordedDate":"2024-10-26T08:00:00.000+00:00"},"request":{"method":"PUT","url":"Condition/b329e1c8-89eb-4003-876a-ea7b4612efa6"}},{"fullUrl":"https://madie.cms.gov/MeasureReport/23b6b3a0-626f-46c7-a60f-f9e05d1a0e47","resource":{"resourceType":"MeasureReport","id":"23b6b3a0-626f-46c7-a60f-f9e05d1a0e47","meta":{"profile":["http://hl7.org/fhir/us/cqfmeasures/StructureDefinition/test-case-cqfm"]},"contained":[{"resourceType":"Parameters","id":"b23d5db3-d86a-4d2f-8f0c-c4a8dd5758c5-parameters","parameter":[{"name":"subject","valueString":"479b5965-0fef-4d37-b767-03502fd12f84"}]}],"extension":[{"url":"http://hl7.org/fhir/us/cqfmeasures/StructureDefinition/cqfm-inputParameters","valueReference":{"reference":"#b23d5db3-d86a-4d2f-8f0c-c4a8dd5758c5-parameters"}},{"url":"http://hl7.org/fhir/us/cqfmeasures/StructureDefinition/cqfm-testCaseDescription","valueMarkdown":"Risk variable of BMI\n\n"}],"modifierExtension":[{"url":"http://hl7.org/fhir/us/cqfmeasures/StructureDefinition/cqfm-isTestCase","valueBoolean":true}],"status":"complete","type":"individual","measure":"https://madie.cms.gov/Measure/SevereObstetricComplicationsFHIR","period":{"start":"2024-01-01","end":"2024-12-31"},"group":[{"population":[{"code":{"coding":[{"system":"http://terminology.hl7.org/CodeSystem/measure-population","code":"initial-population","display":"Initial Population"}]},"count":1},{"code":{"coding":[{"system":"http://terminology.hl7.org/CodeSystem/measure-population","code":"denominator","display":"Denominator"}]},"count":1},{"code":{"coding":[{"system":"http://terminology.hl7.org/CodeSystem/measure-population","code":"denominator-exclusion","display":"Denominator Exclusion"}]},"count":0},{"code":{"coding":[{"system":"http://terminology.hl7.org/CodeSystem/measure-population","code":"numerator","display":"Numerator"}]},"count":1}]}],"evaluatedResource":[{"reference":"Patient/479b5965-0fef-4d37-b767-03502fd12f84"},{"reference":"Observation/08376f1d-f87d-4f16-aa3c-bd2993cf0159"},{"reference":"Observation/d659548b-e090-434f-9931-e1c3605fc347"},{"reference":"Encounter/8179c8f7-1466-4d6f-81c2-a23bf2f4f815"},{"reference":"Procedure/cfe32608-4d46-49d0-9d06-8905684f9d67"},{"reference":"Condition/288f3bc3-9ab8-4393-ba2a-17e3b29a64cf"},{"reference":"Condition/b329e1c8-89eb-4003-876a-ea7b4612efa6"}]},"request":{"method":"PUT","url":"MeasureReport/23b6b3a0-626f-46c7-a60f-f9e05d1a0e47"}}]}