{"resourceType":"Bundle","id":"tests-9ffbf7af-cc0f-4e32-90f5-3d60d48b9015-bundle","type":"transaction","entry":[{"fullUrl":"https://madie.cms.gov/Patient/9ffbf7af-cc0f-4e32-90f5-3d60d48b9015","resource":{"resourceType":"Patient","id":"9ffbf7af-cc0f-4e32-90f5-3d60d48b9015","meta":{"profile":["http://hl7.org/fhir/us/qicore/StructureDefinition/qicore-patient"]},"text":{"status":"generated","div":"<div xmlns=\"http://www.w3.org/1999/xhtml\"><div class=\"hapiHeaderText\">Risk_EconomicHousingInstability<b>RISKPass </b></div><table class=\"hapiPropertyTable\"><tbody><tr><td>Date of birth</td><td><span>01 February 2004</span></td></tr></tbody></table></div>"},"extension":[{"url":"http://hl7.org/fhir/us/core/StructureDefinition/us-core-race","extension":[{"url":"ombCategory","valueCoding":{"system":"urn:oid:2.16.840.1.113883.6.238","code":"1002-5","display":"American Indian or Alaska Native","userSelected":true}},{"url":"text","valueString":"American Indian or Alaska Native"}]},{"url":"http://hl7.org/fhir/us/core/StructureDefinition/us-core-ethnicity","extension":[{"url":"ombCategory","valueCoding":{"system":"urn:oid:2.16.840.1.113883.6.238","code":"2135-2","display":"Hispanic or Latino","userSelected":true}},{"url":"text","valueString":"Hispanic or Latino"}]}],"identifier":[{"type":{"coding":[{"system":"http://terminology.hl7.org/CodeSystem/v2-0203","code":"MR"}]},"system":"https://bonnie-fhir.healthit.gov/","value":"63594c7a6aee9629c82981df"}],"active":true,"name":[{"use":"usual","family":"RiskPass","given":["Risk_EconomicHousingInstability"]}],"gender":"female","birthDate":"2004-02-01"},"request":{"method":"PUT","url":"Patient/9ffbf7af-cc0f-4e32-90f5-3d60d48b9015"}},{"fullUrl":"https://madie.cms.gov/Observation/04d3d9c7-d34f-4e72-a51a-00f6c07afd56","resource":{"resourceType":"Observation","id":"04d3d9c7-d34f-4e72-a51a-00f6c07afd56","meta":{"profile":["http://hl7.org/fhir/us/qicore/StructureDefinition/qicore-observation"]},"status":"final","category":[{"coding":[{"system":"http://terminology.hl7.org/CodeSystem/observation-category","code":"exam","display":"exam","userSelected":true}]}],"code":{"coding":[{"system":"http://loinc.org","code":"93857-1"}]},"subject":{"reference":"Patient/9ffbf7af-cc0f-4e32-90f5-3d60d48b9015"},"effectiveDateTime":"2024-02-01T08:00:00.000+00:00","valueDateTime":"2024-02-01T08:00:00+00:00"},"request":{"method":"PUT","url":"Observation/04d3d9c7-d34f-4e72-a51a-00f6c07afd56"}},{"fullUrl":"https://madie.cms.gov/Observation/05f8aeb9-1ba5-4b75-9fc9-0d676d60ca87","resource":{"resourceType":"Observation","id":"05f8aeb9-1ba5-4b75-9fc9-0d676d60ca87","meta":{"profile":["http://hl7.org/fhir/us/qicore/StructureDefinition/qicore-observation"]},"status":"final","category":[{"coding":[{"system":"http://terminology.hl7.org/CodeSystem/observation-category","code":"exam","display":"exam","userSelected":true}]}],"code":{"coding":[{"system":"http://loinc.org","code":"11778-8"}]},"subject":{"reference":"Patient/9ffbf7af-cc0f-4e32-90f5-3d60d48b9015"},"effectiveDateTime":"2024-02-01T08:00:00.000+00:00","valueDateTime":"2024-02-01T00:00:00.000+00:00"},"request":{"method":"PUT","url":"Observation/05f8aeb9-1ba5-4b75-9fc9-0d676d60ca87"}},{"fullUrl":"https://madie.cms.gov/Encounter/07e31288-d1af-49d9-878f-0c57e9b0339d","resource":{"resourceType":"Encounter","id":"07e31288-d1af-49d9-878f-0c57e9b0339d","meta":{"profile":["http://hl7.org/fhir/us/qicore/StructureDefinition/qicore-encounter"]},"status":"finished","class":{"system":"http://terminology.hl7.org/CodeSystem/v3-ActCode","code":"IMP","display":"inpatient encounter"},"type":[{"coding":[{"system":"http://snomed.info/sct","code":"183452005"}]}],"subject":{"reference":"Patient/9ffbf7af-cc0f-4e32-90f5-3d60d48b9015"},"period":{"start":"2024-02-01T08:00:00.000Z","end":"2024-02-05T08:15:00.000Z"},"diagnosis":[{"extension":[{"url":"http://hl7.org/fhir/us/qicore/StructureDefinition/qicore-encounter-diagnosisPresentOnAdmission","valueCodeableConcept":{"coding":[{"system":"https://www.cms.gov/Medicare/Medicare-Fee-for-Service-Payment/HospitalAcqCond/Coding","code":"Y"}]}}],"condition":{"reference":"Condition/e63c4b61-1991-4f7d-85a7-5a7a6f7ae36a"}},{"extension":[{"url":"http://hl7.org/fhir/us/qicore/StructureDefinition/qicore-encounter-diagnosisPresentOnAdmission","valueCodeableConcept":{"coding":[{"system":"https://www.cms.gov/Medicare/Medicare-Fee-for-Service-Payment/HospitalAcqCond/Coding","code":"N"}]}}],"condition":{"reference":"Condition/d67cd18c-5ed2-40a5-884e-8926ef9cf9f3"}}]},"request":{"method":"PUT","url":"Encounter/07e31288-d1af-49d9-878f-0c57e9b0339d"}},{"fullUrl":"https://madie.cms.gov/Procedure/0ff318a9-b3c8-41c7-820d-0348694d6f39","resource":{"resourceType":"Procedure","id":"0ff318a9-b3c8-41c7-820d-0348694d6f39","meta":{"profile":["http://hl7.org/fhir/us/qicore/StructureDefinition/qicore-procedure"]},"extension":[{"url":"http://hl7.org/fhir/us/qicore/StructureDefinition/qicore-recorded","valueDateTime":"2013-04-05T09:35:00-04:00"}],"status":"completed","code":{"coding":[{"system":"http://snomed.info/sct","code":"10745001"}]},"subject":{"reference":"Patient/9ffbf7af-cc0f-4e32-90f5-3d60d48b9015"},"performedDateTime":"2024-02-01T08:00:00.000+00:00"},"request":{"method":"PUT","url":"Procedure/0ff318a9-b3c8-41c7-820d-0348694d6f39"}},{"fullUrl":"https://madie.cms.gov/Condition/d67cd18c-5ed2-40a5-884e-8926ef9cf9f3","resource":{"resourceType":"Condition","id":"d67cd18c-5ed2-40a5-884e-8926ef9cf9f3","meta":{"profile":["http://hl7.org/fhir/us/qicore/StructureDefinition/qicore-condition"]},"category":[{"coding":[{"system":"http://terminology.hl7.org/CodeSystem/condition-category","code":"encounter-diagnosis","display":"Encounter Diagnosis"}]}],"code":{"coding":[{"system":"http://hl7.org/fhir/sid/icd-10-cm","version":"2023","code":"A32.7","display":"Listerial sepsis","userSelected":true}]},"subject":{"reference":"Patient/9ffbf7af-cc0f-4e32-90f5-3d60d48b9015"},"recordedDate":"2024-10-26T08:00:00.000+00:00"},"request":{"method":"PUT","url":"Condition/d67cd18c-5ed2-40a5-884e-8926ef9cf9f3"}},{"fullUrl":"https://madie.cms.gov/Condition/e63c4b61-1991-4f7d-85a7-5a7a6f7ae36a","resource":{"resourceType":"Condition","id":"e63c4b61-1991-4f7d-85a7-5a7a6f7ae36a","meta":{"profile":["http://hl7.org/fhir/us/qicore/StructureDefinition/qicore-condition"]},"category":[{"coding":[{"system":"http://terminology.hl7.org/CodeSystem/condition-category","code":"encounter-diagnosis","display":"Encounter Diagnosis"}]}],"code":{"coding":[{"system":"http://hl7.org/fhir/sid/icd-10-cm","version":"2023","code":"Z59.00","display":"Economic Housing Instability","userSelected":true}]},"subject":{"reference":"Patient/9ffbf7af-cc0f-4e32-90f5-3d60d48b9015"},"recordedDate":"2024-10-26T08:00:00.000+00:00"},"request":{"method":"PUT","url":"Condition/e63c4b61-1991-4f7d-85a7-5a7a6f7ae36a"}},{"fullUrl":"https://madie.cms.gov/MeasureReport/748f1c9b-9e59-4ee3-b64a-9767407885b3","resource":{"resourceType":"MeasureReport","id":"748f1c9b-9e59-4ee3-b64a-9767407885b3","meta":{"profile":["http://hl7.org/fhir/us/cqfmeasures/StructureDefinition/test-case-cqfm"]},"contained":[{"resourceType":"Parameters","id":"d47db4c0-a4bd-450f-bb3f-67f845478f4c-parameters","parameter":[{"name":"subject","valueString":"9ffbf7af-cc0f-4e32-90f5-3d60d48b9015"}]}],"extension":[{"url":"http://hl7.org/fhir/us/cqfmeasures/StructureDefinition/cqfm-inputParameters","valueReference":{"reference":"#d47db4c0-a4bd-450f-bb3f-67f845478f4c-parameters"}},{"url":"http://hl7.org/fhir/us/cqfmeasures/StructureDefinition/cqfm-testCaseDescription","valueMarkdown":"Risk variable of economic housing instability.\n\n"}],"modifierExtension":[{"url":"http://hl7.org/fhir/us/cqfmeasures/StructureDefinition/cqfm-isTestCase","valueBoolean":true}],"status":"complete","type":"individual","measure":"https://madie.cms.gov/Measure/SevereObstetricComplicationsFHIR","period":{"start":"2024-01-01","end":"2024-12-31"},"group":[{"population":[{"code":{"coding":[{"system":"http://terminology.hl7.org/CodeSystem/measure-population","code":"initial-population","display":"Initial Population"}]},"count":1},{"code":{"coding":[{"system":"http://terminology.hl7.org/CodeSystem/measure-population","code":"denominator","display":"Denominator"}]},"count":1},{"code":{"coding":[{"system":"http://terminology.hl7.org/CodeSystem/measure-population","code":"denominator-exclusion","display":"Denominator Exclusion"}]},"count":0},{"code":{"coding":[{"system":"http://terminology.hl7.org/CodeSystem/measure-population","code":"numerator","display":"Numerator"}]},"count":1}]}],"evaluatedResource":[{"reference":"Patient/9ffbf7af-cc0f-4e32-90f5-3d60d48b9015"},{"reference":"Observation/04d3d9c7-d34f-4e72-a51a-00f6c07afd56"},{"reference":"Observation/05f8aeb9-1ba5-4b75-9fc9-0d676d60ca87"},{"reference":"Encounter/07e31288-d1af-49d9-878f-0c57e9b0339d"},{"reference":"Procedure/0ff318a9-b3c8-41c7-820d-0348694d6f39"},{"reference":"Condition/d67cd18c-5ed2-40a5-884e-8926ef9cf9f3"},{"reference":"Condition/e63c4b61-1991-4f7d-85a7-5a7a6f7ae36a"}]},"request":{"method":"PUT","url":"MeasureReport/748f1c9b-9e59-4ee3-b64a-9767407885b3"}}]}