{"resourceType":"Bundle","id":"tests-f3a43f76-19b5-4f13-951b-e7d618d074b2-bundle","type":"transaction","entry":[{"fullUrl":"https://madie.cms.gov/Patient/f3a43f76-19b5-4f13-951b-e7d618d074b2","resource":{"resourceType":"Patient","id":"f3a43f76-19b5-4f13-951b-e7d618d074b2","meta":{"profile":["http://hl7.org/fhir/us/qicore/StructureDefinition/qicore-patient"]},"text":{"status":"generated","div":"<div xmlns=\"http://www.w3.org/1999/xhtml\"><div class=\"hapiHeaderText\">Risk_AutoImmuneDisease<b>RISKPass </b></div><table class=\"hapiPropertyTable\"><tbody><tr><td>Date of birth</td><td><span>01 February 2004</span></td></tr></tbody></table></div>"},"extension":[{"url":"http://hl7.org/fhir/us/core/StructureDefinition/us-core-race","extension":[{"url":"ombCategory","valueCoding":{"system":"urn:oid:2.16.840.1.113883.6.238","code":"1002-5","display":"American Indian or Alaska Native","userSelected":true}},{"url":"text","valueString":"American Indian or Alaska Native"}]},{"url":"http://hl7.org/fhir/us/core/StructureDefinition/us-core-ethnicity","extension":[{"url":"ombCategory","valueCoding":{"system":"urn:oid:2.16.840.1.113883.6.238","code":"2135-2","display":"Hispanic or Latino","userSelected":true}},{"url":"text","valueString":"Hispanic or Latino"}]}],"identifier":[{"type":{"coding":[{"system":"http://terminology.hl7.org/CodeSystem/v2-0203","code":"MR"}]},"system":"https://bonnie-fhir.healthit.gov/","value":"63594c7a6aee9629c82981df"}],"active":true,"name":[{"use":"usual","family":"RiskPass","given":["Risk_AutoImmuneDisease"]}],"gender":"female","birthDate":"2004-02-01"},"request":{"method":"PUT","url":"Patient/f3a43f76-19b5-4f13-951b-e7d618d074b2"}},{"fullUrl":"https://madie.cms.gov/Observation/dc3deb41-846b-4402-be1a-4638deb49505","resource":{"resourceType":"Observation","id":"dc3deb41-846b-4402-be1a-4638deb49505","meta":{"profile":["http://hl7.org/fhir/us/qicore/StructureDefinition/qicore-observation"]},"status":"final","category":[{"coding":[{"system":"http://terminology.hl7.org/CodeSystem/observation-category","code":"exam","display":"exam","userSelected":true}]}],"code":{"coding":[{"system":"http://loinc.org","code":"93857-1"}]},"subject":{"reference":"Patient/f3a43f76-19b5-4f13-951b-e7d618d074b2"},"effectiveDateTime":"2024-02-01T08:00:00.000+00:00","valueDateTime":"2024-02-01T08:00:00+00:00"},"request":{"method":"PUT","url":"Observation/dc3deb41-846b-4402-be1a-4638deb49505"}},{"fullUrl":"https://madie.cms.gov/Observation/f203d2ea-2547-46ba-9601-0a01626dba7c","resource":{"resourceType":"Observation","id":"f203d2ea-2547-46ba-9601-0a01626dba7c","meta":{"profile":["http://hl7.org/fhir/us/qicore/StructureDefinition/qicore-observation"]},"status":"final","category":[{"coding":[{"system":"http://terminology.hl7.org/CodeSystem/observation-category","code":"exam","display":"exam","userSelected":true}]}],"code":{"coding":[{"system":"http://loinc.org","code":"11778-8"}]},"subject":{"reference":"Patient/f3a43f76-19b5-4f13-951b-e7d618d074b2"},"effectiveDateTime":"2024-02-01T08:00:00.000+00:00","valueDateTime":"2024-02-01T00:00:00.000+00:00"},"request":{"method":"PUT","url":"Observation/f203d2ea-2547-46ba-9601-0a01626dba7c"}},{"fullUrl":"https://madie.cms.gov/Encounter/48127cf6-6564-4c9b-a6de-dbd9584d229e","resource":{"resourceType":"Encounter","id":"48127cf6-6564-4c9b-a6de-dbd9584d229e","meta":{"profile":["http://hl7.org/fhir/us/qicore/StructureDefinition/qicore-encounter"]},"status":"finished","class":{"system":"http://terminology.hl7.org/CodeSystem/v3-ActCode","code":"IMP","display":"inpatient encounter"},"type":[{"coding":[{"system":"http://snomed.info/sct","code":"183452005"}]}],"subject":{"reference":"Patient/f3a43f76-19b5-4f13-951b-e7d618d074b2"},"period":{"start":"2024-02-01T08:00:00.000Z","end":"2024-02-05T08:15:00.000Z"},"diagnosis":[{"extension":[{"url":"http://hl7.org/fhir/us/qicore/StructureDefinition/qicore-encounter-diagnosisPresentOnAdmission","valueCodeableConcept":{"coding":[{"system":"https://www.cms.gov/Medicare/Medicare-Fee-for-Service-Payment/HospitalAcqCond/Coding","code":"Y"}]}}],"condition":{"reference":"Condition/967e922f-4fa2-44e4-8d1a-7109239d45c2"}},{"extension":[{"url":"http://hl7.org/fhir/us/qicore/StructureDefinition/qicore-encounter-diagnosisPresentOnAdmission","valueCodeableConcept":{"coding":[{"system":"https://www.cms.gov/Medicare/Medicare-Fee-for-Service-Payment/HospitalAcqCond/Coding","code":"N"}]}}],"condition":{"reference":"Condition/5d452088-f3ed-417d-92db-e56c340da295"}}]},"request":{"method":"PUT","url":"Encounter/48127cf6-6564-4c9b-a6de-dbd9584d229e"}},{"fullUrl":"https://madie.cms.gov/Procedure/1f9dd51b-55b7-482d-8c09-720de6ecae8f","resource":{"resourceType":"Procedure","id":"1f9dd51b-55b7-482d-8c09-720de6ecae8f","meta":{"profile":["http://hl7.org/fhir/us/qicore/StructureDefinition/qicore-procedure"]},"extension":[{"url":"http://hl7.org/fhir/us/qicore/StructureDefinition/qicore-recorded","valueDateTime":"2013-04-05T09:35:00-04:00"}],"status":"completed","code":{"coding":[{"system":"http://snomed.info/sct","code":"10745001"}]},"subject":{"reference":"Patient/f3a43f76-19b5-4f13-951b-e7d618d074b2"},"performedDateTime":"2024-02-01T08:00:00.000+00:00"},"request":{"method":"PUT","url":"Procedure/1f9dd51b-55b7-482d-8c09-720de6ecae8f"}},{"fullUrl":"https://madie.cms.gov/Condition/5d452088-f3ed-417d-92db-e56c340da295","resource":{"resourceType":"Condition","id":"5d452088-f3ed-417d-92db-e56c340da295","meta":{"profile":["http://hl7.org/fhir/us/qicore/StructureDefinition/qicore-condition"]},"category":[{"coding":[{"system":"http://terminology.hl7.org/CodeSystem/condition-category","code":"encounter-diagnosis","display":"Encounter Diagnosis"}]}],"code":{"coding":[{"system":"http://hl7.org/fhir/sid/icd-10-cm","version":"2023","code":"A32.7","display":"Listerial sepsis","userSelected":true}]},"subject":{"reference":"Patient/f3a43f76-19b5-4f13-951b-e7d618d074b2"},"recordedDate":"2024-10-26T08:00:00.000+00:00"},"request":{"method":"PUT","url":"Condition/5d452088-f3ed-417d-92db-e56c340da295"}},{"fullUrl":"https://madie.cms.gov/Condition/967e922f-4fa2-44e4-8d1a-7109239d45c2","resource":{"resourceType":"Condition","id":"967e922f-4fa2-44e4-8d1a-7109239d45c2","meta":{"profile":["http://hl7.org/fhir/us/qicore/StructureDefinition/qicore-condition"]},"category":[{"coding":[{"system":"http://terminology.hl7.org/CodeSystem/condition-category","code":"encounter-diagnosis","display":"Encounter Diagnosis"}]}],"code":{"coding":[{"system":"http://hl7.org/fhir/sid/icd-10-cm","version":"2023","code":"M30.0","display":"Autoimmune Disease-81e0","userSelected":true}]},"subject":{"reference":"Patient/f3a43f76-19b5-4f13-951b-e7d618d074b2"},"recordedDate":"2024-10-26T08:00:00.000+00:00"},"request":{"method":"PUT","url":"Condition/967e922f-4fa2-44e4-8d1a-7109239d45c2"}},{"fullUrl":"https://madie.cms.gov/MeasureReport/4b193554-810e-4db5-adf1-994a3ab0fe4c","resource":{"resourceType":"MeasureReport","id":"4b193554-810e-4db5-adf1-994a3ab0fe4c","meta":{"profile":["http://hl7.org/fhir/us/cqfmeasures/StructureDefinition/test-case-cqfm"]},"contained":[{"resourceType":"Parameters","id":"0467de15-0848-4e1d-8de8-77be23740ed3-parameters","parameter":[{"name":"subject","valueString":"f3a43f76-19b5-4f13-951b-e7d618d074b2"}]}],"extension":[{"url":"http://hl7.org/fhir/us/cqfmeasures/StructureDefinition/cqfm-inputParameters","valueReference":{"reference":"#0467de15-0848-4e1d-8de8-77be23740ed3-parameters"}},{"url":"http://hl7.org/fhir/us/cqfmeasures/StructureDefinition/cqfm-testCaseDescription","valueMarkdown":"Risk variable of autoimmune disease.\n\n"}],"modifierExtension":[{"url":"http://hl7.org/fhir/us/cqfmeasures/StructureDefinition/cqfm-isTestCase","valueBoolean":true}],"status":"complete","type":"individual","measure":"https://madie.cms.gov/Measure/SevereObstetricComplicationsFHIR","period":{"start":"2024-01-01","end":"2024-12-31"},"group":[{"population":[{"code":{"coding":[{"system":"http://terminology.hl7.org/CodeSystem/measure-population","code":"initial-population","display":"Initial Population"}]},"count":1},{"code":{"coding":[{"system":"http://terminology.hl7.org/CodeSystem/measure-population","code":"denominator","display":"Denominator"}]},"count":1},{"code":{"coding":[{"system":"http://terminology.hl7.org/CodeSystem/measure-population","code":"denominator-exclusion","display":"Denominator Exclusion"}]},"count":0},{"code":{"coding":[{"system":"http://terminology.hl7.org/CodeSystem/measure-population","code":"numerator","display":"Numerator"}]},"count":1}]}],"evaluatedResource":[{"reference":"Patient/f3a43f76-19b5-4f13-951b-e7d618d074b2"},{"reference":"Observation/dc3deb41-846b-4402-be1a-4638deb49505"},{"reference":"Observation/f203d2ea-2547-46ba-9601-0a01626dba7c"},{"reference":"Encounter/48127cf6-6564-4c9b-a6de-dbd9584d229e"},{"reference":"Procedure/1f9dd51b-55b7-482d-8c09-720de6ecae8f"},{"reference":"Condition/5d452088-f3ed-417d-92db-e56c340da295"},{"reference":"Condition/967e922f-4fa2-44e4-8d1a-7109239d45c2"}]},"request":{"method":"PUT","url":"MeasureReport/4b193554-810e-4db5-adf1-994a3ab0fe4c"}}]}