{"resourceType":"Bundle","id":"tests-d82d5cf6-5c19-4a63-9a04-c2f772c23b06-bundle","type":"transaction","entry":[{"fullUrl":"https://madie.cms.gov/Patient/d82d5cf6-5c19-4a63-9a04-c2f772c23b06","resource":{"resourceType":"Patient","id":"d82d5cf6-5c19-4a63-9a04-c2f772c23b06","meta":{"profile":["http://hl7.org/fhir/us/qicore/StructureDefinition/qicore-patient"]},"text":{"status":"generated","div":"<div xmlns=\"http://www.w3.org/1999/xhtml\"><div class=\"hapiHeaderText\">EncProcEQSevereMatMorbidity <b>NUMPass </b></div><table class=\"hapiPropertyTable\"><tbody><tr><td>Date of birth</td><td><span>01 February 2004</span></td></tr></tbody></table></div>"},"extension":[{"url":"http://hl7.org/fhir/us/core/StructureDefinition/us-core-race","extension":[{"url":"ombCategory","valueCoding":{"system":"urn:oid:2.16.840.1.113883.6.238","code":"1002-5","display":"American Indian or Alaska Native","userSelected":true}},{"url":"text","valueString":"American Indian or Alaska Native"}]},{"url":"http://hl7.org/fhir/us/core/StructureDefinition/us-core-ethnicity","extension":[{"url":"ombCategory","valueCoding":{"system":"urn:oid:2.16.840.1.113883.6.238","code":"2135-2","display":"Hispanic or Latino","userSelected":true}},{"url":"text","valueString":"Hispanic or Latino"}]}],"identifier":[{"type":{"coding":[{"system":"http://terminology.hl7.org/CodeSystem/v2-0203","code":"MR"}]},"system":"https://bonnie-fhir.healthit.gov/","value":"633b3f9f0968f80122503cdb"}],"active":true,"name":[{"use":"usual","family":"NUMPass","given":["EncProcEQSevereMatMorbidity"]}],"gender":"female","birthDate":"2004-02-01"},"request":{"method":"PUT","url":"Patient/d82d5cf6-5c19-4a63-9a04-c2f772c23b06"}},{"fullUrl":"https://madie.cms.gov/Observation/1e427089-c4ad-4cec-9a93-4c3d3b5fde82","resource":{"resourceType":"Observation","id":"1e427089-c4ad-4cec-9a93-4c3d3b5fde82","meta":{"profile":["http://hl7.org/fhir/us/qicore/StructureDefinition/qicore-observation"]},"status":"final","category":[{"coding":[{"system":"http://terminology.hl7.org/CodeSystem/observation-category","code":"exam","display":"exam","userSelected":true}]}],"code":{"coding":[{"system":"http://loinc.org","code":"93857-1"}]},"subject":{"reference":"Patient/d82d5cf6-5c19-4a63-9a04-c2f772c23b06"},"effectiveDateTime":"2024-02-01T08:00:00.000+00:00","valueDateTime":"2024-02-01T08:00:00+00:00"},"request":{"method":"PUT","url":"Observation/1e427089-c4ad-4cec-9a93-4c3d3b5fde82"}},{"fullUrl":"https://madie.cms.gov/Observation/886b54d5-d508-435e-b8bf-43107a6e7218","resource":{"resourceType":"Observation","id":"886b54d5-d508-435e-b8bf-43107a6e7218","meta":{"profile":["http://hl7.org/fhir/us/qicore/StructureDefinition/qicore-observation"]},"status":"final","category":[{"coding":[{"system":"http://terminology.hl7.org/CodeSystem/observation-category","code":"exam","display":"exam","userSelected":true}]}],"code":{"coding":[{"system":"http://loinc.org","code":"11884-4"}]},"subject":{"reference":"Patient/d82d5cf6-5c19-4a63-9a04-c2f772c23b06"},"effectiveDateTime":"2024-02-01T08:00:00.000+00:00","valueQuantity":{"value":20,"system":"http://unitsofmeasure.org","code":"wk"}},"request":{"method":"PUT","url":"Observation/886b54d5-d508-435e-b8bf-43107a6e7218"}},{"fullUrl":"https://madie.cms.gov/Observation/2e3da4c5-5dfe-41dd-906a-1b03f1fae348","resource":{"resourceType":"Observation","id":"2e3da4c5-5dfe-41dd-906a-1b03f1fae348","meta":{"profile":["http://hl7.org/fhir/us/qicore/StructureDefinition/qicore-observation"]},"status":"final","category":[{"coding":[{"system":"http://terminology.hl7.org/CodeSystem/observation-category","code":"exam","display":"exam","userSelected":true}]}],"code":{"coding":[{"system":"http://loinc.org","code":"11884-4"}]},"subject":{"reference":"Patient/d82d5cf6-5c19-4a63-9a04-c2f772c23b06"},"effectiveDateTime":"2024-02-01T08:01:00.000+00:00"},"request":{"method":"PUT","url":"Observation/2e3da4c5-5dfe-41dd-906a-1b03f1fae348"}},{"fullUrl":"https://madie.cms.gov/Encounter/412349ab-6d56-4e15-845b-aab6d1601523","resource":{"resourceType":"Encounter","id":"412349ab-6d56-4e15-845b-aab6d1601523","meta":{"profile":["http://hl7.org/fhir/us/qicore/StructureDefinition/qicore-encounter"]},"status":"finished","class":{"system":"http://terminology.hl7.org/CodeSystem/v3-ActCode","code":"IMP","display":"inpatient encounter"},"type":[{"coding":[{"system":"http://snomed.info/sct","code":"183452005"}]}],"subject":{"reference":"Patient/d82d5cf6-5c19-4a63-9a04-c2f772c23b06"},"period":{"start":"2024-02-01T08:00:00.000Z","end":"2024-02-05T08:15:00.000Z"}},"request":{"method":"PUT","url":"Encounter/412349ab-6d56-4e15-845b-aab6d1601523"}},{"fullUrl":"https://madie.cms.gov/Coverage/5043003e-e7b2-436d-ac94-e164b2bf188d","resource":{"resourceType":"Coverage","id":"5043003e-e7b2-436d-ac94-e164b2bf188d","status":"active","beneficiary":{"reference":"Patient/d82d5cf6-5c19-4a63-9a04-c2f772c23b06"},"period":{"start":"2004-02-01T08:00:00.000Z"},"payor":[{"reference":"Organization/235d3fd7-9cab-4f94-9ac3-ab73e6049b09"}]},"request":{"method":"PUT","url":"Coverage/5043003e-e7b2-436d-ac94-e164b2bf188d"}},{"fullUrl":"https://madie.cms.gov/Procedure/766e54b1-810d-4ff1-8f70-80a72c4779fa","resource":{"resourceType":"Procedure","id":"766e54b1-810d-4ff1-8f70-80a72c4779fa","meta":{"profile":["http://hl7.org/fhir/us/qicore/StructureDefinition/qicore-procedure"]},"extension":[{"url":"http://hl7.org/fhir/us/qicore/StructureDefinition/qicore-recorded","valueDateTime":"2013-04-05T09:35:00-04:00"}],"status":"completed","code":{"coding":[{"system":"http://snomed.info/sct","code":"10745001"}]},"subject":{"reference":"Patient/d82d5cf6-5c19-4a63-9a04-c2f772c23b06"},"performedPeriod":{"start":"2024-02-01T08:00:00.000Z","end":"2024-02-05T08:15:00.000Z"}},"request":{"method":"PUT","url":"Procedure/766e54b1-810d-4ff1-8f70-80a72c4779fa"}},{"fullUrl":"https://madie.cms.gov/Procedure/885ab61f-1c37-4b2b-b7d9-d56dcb86636c","resource":{"resourceType":"Procedure","id":"885ab61f-1c37-4b2b-b7d9-d56dcb86636c","meta":{"profile":["http://hl7.org/fhir/us/qicore/StructureDefinition/qicore-procedure"]},"extension":[{"url":"http://hl7.org/fhir/us/qicore/StructureDefinition/qicore-recorded","valueDateTime":"2024-02-01T00:01:00-04:00"}],"status":"completed","code":{"coding":[{"system":"http://snomed.info/sct","code":"11050006"}]},"subject":{"reference":"Patient/d82d5cf6-5c19-4a63-9a04-c2f772c23b06"},"performedPeriod":{"start":"2024-02-04T00:00:00.000Z","end":"2024-02-04T11:59:00.000Z"}},"request":{"method":"PUT","url":"Procedure/885ab61f-1c37-4b2b-b7d9-d56dcb86636c"}},{"fullUrl":"https://madie.cms.gov/Organization/235d3fd7-9cab-4f94-9ac3-ab73e6049b09","resource":{"resourceType":"Organization","id":"235d3fd7-9cab-4f94-9ac3-ab73e6049b09","meta":{"profile":["http://hl7.org/fhir/us/qicore/StructureDefinition/qicore-organization"]},"identifier":[{"use":"temp","system":"urn:oid:2.16.840.1.113883.4.4","value":"21-3259825"}],"active":true,"type":[{"coding":[{"system":"http://terminology.hl7.org/CodeSystem/organization-type","code":"pay","display":"Payer"}]}],"name":"Blue Cross Blue Shield of Texas","telecom":[{"system":"phone","value":"(+1) 972-766-6900"}],"address":[{"use":"billing","type":"postal","line":["P.O. Box 660044"],"city":"Dallas","state":"TX","postalCode":"75266-0044","country":"USA"}]},"request":{"method":"PUT","url":"Organization/235d3fd7-9cab-4f94-9ac3-ab73e6049b09"}},{"fullUrl":"https://madie.cms.gov/Practitioner/04ad6465-bfbf-46ce-8b3a-c3ab417380bb","resource":{"resourceType":"Practitioner","id":"04ad6465-bfbf-46ce-8b3a-c3ab417380bb","identifier":[{"system":"http://hl7.org/fhir/sid/us-npi","value":"123456"}],"name":[{"family":"Evil","prefix":["Dr"]}]},"request":{"method":"PUT","url":"Practitioner/04ad6465-bfbf-46ce-8b3a-c3ab417380bb"}},{"fullUrl":"https://madie.cms.gov/MeasureReport/495cdabb-0120-47a6-b1b7-8c6740f93486","resource":{"resourceType":"MeasureReport","id":"495cdabb-0120-47a6-b1b7-8c6740f93486","meta":{"profile":["http://hl7.org/fhir/us/cqfmeasures/StructureDefinition/test-case-cqfm"]},"contained":[{"resourceType":"Parameters","id":"dde5e42a-06d1-4a70-946e-3c14cdea5433-parameters","parameter":[{"name":"subject","valueString":"d82d5cf6-5c19-4a63-9a04-c2f772c23b06"}]}],"extension":[{"url":"http://hl7.org/fhir/us/cqfmeasures/StructureDefinition/cqfm-inputParameters","valueReference":{"reference":"#dde5e42a-06d1-4a70-946e-3c14cdea5433-parameters"}},{"url":"http://hl7.org/fhir/us/cqfmeasures/StructureDefinition/cqfm-testCaseDescription","valueMarkdown":"Encounter Procedure = Severe Maternal Morbidity Procedure\n"}],"modifierExtension":[{"url":"http://hl7.org/fhir/us/cqfmeasures/StructureDefinition/cqfm-isTestCase","valueBoolean":true}],"status":"complete","type":"individual","measure":"https://madie.cms.gov/Measure/SevereObstetricComplicationsFHIR","period":{"start":"2024-01-01","end":"2024-12-31"},"group":[{"population":[{"code":{"coding":[{"system":"http://terminology.hl7.org/CodeSystem/measure-population","code":"initial-population","display":"Initial Population"}]},"count":1},{"code":{"coding":[{"system":"http://terminology.hl7.org/CodeSystem/measure-population","code":"denominator","display":"Denominator"}]},"count":1},{"code":{"coding":[{"system":"http://terminology.hl7.org/CodeSystem/measure-population","code":"denominator-exclusion","display":"Denominator Exclusion"}]},"count":0},{"code":{"coding":[{"system":"http://terminology.hl7.org/CodeSystem/measure-population","code":"numerator","display":"Numerator"}]},"count":1}]}],"evaluatedResource":[{"reference":"Patient/d82d5cf6-5c19-4a63-9a04-c2f772c23b06"},{"reference":"Observation/1e427089-c4ad-4cec-9a93-4c3d3b5fde82"},{"reference":"Observation/886b54d5-d508-435e-b8bf-43107a6e7218"},{"reference":"Observation/2e3da4c5-5dfe-41dd-906a-1b03f1fae348"},{"reference":"Encounter/412349ab-6d56-4e15-845b-aab6d1601523"},{"reference":"Coverage/5043003e-e7b2-436d-ac94-e164b2bf188d"},{"reference":"Procedure/766e54b1-810d-4ff1-8f70-80a72c4779fa"},{"reference":"Procedure/885ab61f-1c37-4b2b-b7d9-d56dcb86636c"},{"reference":"Organization/235d3fd7-9cab-4f94-9ac3-ab73e6049b09"},{"reference":"Practitioner/04ad6465-bfbf-46ce-8b3a-c3ab417380bb"}]},"request":{"method":"PUT","url":"MeasureReport/495cdabb-0120-47a6-b1b7-8c6740f93486"}}]}