{"resourceType":"Bundle","id":"tests-8d4ec26c-6284-4a96-966a-1e1c56f3b90b-bundle","type":"transaction","entry":[{"fullUrl":"https://madie.cms.gov/Patient/8d4ec26c-6284-4a96-966a-1e1c56f3b90b","resource":{"resourceType":"Patient","id":"8d4ec26c-6284-4a96-966a-1e1c56f3b90b","meta":{"profile":["http://hl7.org/fhir/us/qicore/StructureDefinition/qicore-patient"]},"text":{"status":"generated","div":"<div xmlns=\"http://www.w3.org/1999/xhtml\"><div class=\"hapiHeaderText\">EncDxEQICD10SepsisPOAisYes <b>NUMFail </b></div><table class=\"hapiPropertyTable\"><tbody><tr><td>Date of birth</td><td><span>01 February 2004</span></td></tr></tbody></table></div>"},"extension":[{"url":"http://hl7.org/fhir/us/core/StructureDefinition/us-core-race","extension":[{"url":"ombCategory","valueCoding":{"system":"urn:oid:2.16.840.1.113883.6.238","code":"1002-5","display":"American Indian or Alaska Native","userSelected":true}},{"url":"text","valueString":"American Indian or Alaska Native"}]},{"url":"http://hl7.org/fhir/us/core/StructureDefinition/us-core-ethnicity","extension":[{"url":"ombCategory","valueCoding":{"system":"urn:oid:2.16.840.1.113883.6.238","code":"2135-2","display":"Hispanic or Latino","userSelected":true}},{"url":"text","valueString":"Hispanic or Latino"}]}],"identifier":[{"type":{"coding":[{"system":"http://terminology.hl7.org/CodeSystem/v2-0203","code":"MR"}]},"system":"https://bonnie-fhir.healthit.gov/","value":"6356dca654e383debade75aa"}],"active":true,"name":[{"use":"usual","family":"NUMFail","given":["EncDxEQICD10SepsisPOAisYes"]}],"gender":"female","birthDate":"2004-02-01"},"request":{"method":"PUT","url":"Patient/8d4ec26c-6284-4a96-966a-1e1c56f3b90b"}},{"fullUrl":"https://madie.cms.gov/Observation/5def77df-b7fe-4d12-a801-a6242c50fc39","resource":{"resourceType":"Observation","id":"5def77df-b7fe-4d12-a801-a6242c50fc39","meta":{"profile":["http://hl7.org/fhir/us/qicore/StructureDefinition/qicore-observation"]},"status":"final","category":[{"coding":[{"system":"http://terminology.hl7.org/CodeSystem/observation-category","code":"exam","display":"exam","userSelected":true}]}],"code":{"coding":[{"system":"http://loinc.org","code":"93857-1"}]},"subject":{"reference":"Patient/8d4ec26c-6284-4a96-966a-1e1c56f3b90b"},"effectiveDateTime":"2024-02-01T08:00:00.000+00:00","valueDateTime":"2024-02-01T08:00:00+00:00"},"request":{"method":"PUT","url":"Observation/5def77df-b7fe-4d12-a801-a6242c50fc39"}},{"fullUrl":"https://madie.cms.gov/Observation/0bc6a60a-93eb-4148-824c-7231b28c3656","resource":{"resourceType":"Observation","id":"0bc6a60a-93eb-4148-824c-7231b28c3656","meta":{"profile":["http://hl7.org/fhir/us/qicore/StructureDefinition/qicore-observation"]},"status":"final","category":[{"coding":[{"system":"http://terminology.hl7.org/CodeSystem/observation-category","code":"exam","display":"exam","userSelected":true}]}],"code":{"coding":[{"system":"http://loinc.org","code":"11884-4"}]},"subject":{"reference":"Patient/8d4ec26c-6284-4a96-966a-1e1c56f3b90b"},"effectiveDateTime":"2024-02-01T08:00:00.000+00:00","valueQuantity":{"value":21,"system":"http://unitsofmeasure.org","code":"wk"}},"request":{"method":"PUT","url":"Observation/0bc6a60a-93eb-4148-824c-7231b28c3656"}},{"fullUrl":"https://madie.cms.gov/Encounter/aef5c983-75f1-4b69-b910-80f73f850a4a","resource":{"resourceType":"Encounter","id":"aef5c983-75f1-4b69-b910-80f73f850a4a","meta":{"profile":["http://hl7.org/fhir/us/qicore/StructureDefinition/qicore-encounter"]},"status":"finished","class":{"system":"http://terminology.hl7.org/CodeSystem/v3-ActCode","code":"IMP","display":"inpatient encounter"},"type":[{"coding":[{"system":"http://snomed.info/sct","code":"183452005"}]}],"subject":{"reference":"Patient/8d4ec26c-6284-4a96-966a-1e1c56f3b90b"},"period":{"start":"2024-02-01T08:00:00.000Z","end":"2024-02-05T08:15:00.000Z"},"diagnosis":[{"extension":[{"url":"http://hl7.org/fhir/us/qicore/StructureDefinition/qicore-encounter-diagnosisPresentOnAdmission","valueCodeableConcept":{"coding":[{"system":"https://www.cms.gov/Medicare/Medicare-Fee-for-Service-Payment/HospitalAcqCond/Coding","code":"Y"}]}}],"condition":{"reference":"Condition/a552f313-6f96-46f8-831b-36be09ebf264"}}]},"request":{"method":"PUT","url":"Encounter/aef5c983-75f1-4b69-b910-80f73f850a4a"}},{"fullUrl":"https://madie.cms.gov/Procedure/632bccdd-f090-4bf0-bbc0-84280860d500","resource":{"resourceType":"Procedure","id":"632bccdd-f090-4bf0-bbc0-84280860d500","meta":{"profile":["http://hl7.org/fhir/us/qicore/StructureDefinition/qicore-procedure"]},"extension":[{"url":"http://hl7.org/fhir/us/qicore/StructureDefinition/qicore-recorded","valueDateTime":"2013-04-05T09:35:00-04:00"}],"status":"completed","code":{"coding":[{"system":"http://snomed.info/sct","code":"10745001"}]},"subject":{"reference":"Patient/8d4ec26c-6284-4a96-966a-1e1c56f3b90b"},"performedPeriod":{"start":"2024-02-01T08:00:00.000Z","end":"2024-02-05T08:15:00.000Z"}},"request":{"method":"PUT","url":"Procedure/632bccdd-f090-4bf0-bbc0-84280860d500"}},{"fullUrl":"https://madie.cms.gov/Condition/a552f313-6f96-46f8-831b-36be09ebf264","resource":{"resourceType":"Condition","id":"a552f313-6f96-46f8-831b-36be09ebf264","meta":{"profile":["http://hl7.org/fhir/us/qicore/StructureDefinition/qicore-condition"]},"category":[{"coding":[{"system":"http://terminology.hl7.org/CodeSystem/condition-category","code":"encounter-diagnosis","display":"Encounter Diagnosis"}]}],"code":{"coding":[{"system":"http://hl7.org/fhir/sid/icd-10-cm","version":"2023","code":"A32.7","display":"Listerial sepsis","userSelected":true}]},"subject":{"reference":"Patient/8d4ec26c-6284-4a96-966a-1e1c56f3b90b"},"recordedDate":"2024-10-26T08:00:00.000+00:00"},"request":{"method":"PUT","url":"Condition/a552f313-6f96-46f8-831b-36be09ebf264"}},{"fullUrl":"https://madie.cms.gov/Coverage/468756b2-dbe1-48f3-a776-bc1d3b081e0d","resource":{"resourceType":"Coverage","id":"468756b2-dbe1-48f3-a776-bc1d3b081e0d","meta":{"profile":["http://hl7.org/fhir/us/qicore/StructureDefinition/qicore-coverage"]},"status":"active","beneficiary":{"reference":"Patient/8d4ec26c-6284-4a96-966a-1e1c56f3b90b"},"payor":[{"reference":"Organization/71ab877e-5e9e-4f16-bb98-cfa05a38bee6"}]},"request":{"method":"PUT","url":"Coverage/468756b2-dbe1-48f3-a776-bc1d3b081e0d"}},{"fullUrl":"https://madie.cms.gov/Organization/71ab877e-5e9e-4f16-bb98-cfa05a38bee6","resource":{"resourceType":"Organization","id":"71ab877e-5e9e-4f16-bb98-cfa05a38bee6","meta":{"profile":["http://hl7.org/fhir/us/qicore/StructureDefinition/qicore-organization"]},"identifier":[{"use":"temp","system":"urn:oid:2.16.840.1.113883.4.4","value":"21-3259825"}],"active":true,"type":[{"coding":[{"system":"http://terminology.hl7.org/CodeSystem/organization-type","code":"pay","display":"Payer"}]}],"name":"Blue Cross Blue Shield of Texas","telecom":[{"system":"phone","value":"(+1) 972-766-6900"}],"address":[{"use":"billing","type":"postal","line":["P.O. Box 660044"],"city":"Dallas","state":"TX","postalCode":"75266-0044","country":"USA"}]},"request":{"method":"PUT","url":"Organization/71ab877e-5e9e-4f16-bb98-cfa05a38bee6"}},{"fullUrl":"https://madie.cms.gov/Practitioner/a8d708cb-aa6a-469e-b936-39d37bf0be14","resource":{"resourceType":"Practitioner","id":"a8d708cb-aa6a-469e-b936-39d37bf0be14","identifier":[{"system":"http://hl7.org/fhir/sid/us-npi","value":"123456"}],"name":[{"family":"Evil","prefix":["Dr"]}]},"request":{"method":"PUT","url":"Practitioner/a8d708cb-aa6a-469e-b936-39d37bf0be14"}},{"fullUrl":"https://madie.cms.gov/MeasureReport/7be1ab52-65b6-4027-9738-fb103075579c","resource":{"resourceType":"MeasureReport","id":"7be1ab52-65b6-4027-9738-fb103075579c","meta":{"profile":["http://hl7.org/fhir/us/cqfmeasures/StructureDefinition/test-case-cqfm"]},"contained":[{"resourceType":"Parameters","id":"4cb7802c-9655-4e05-9ae7-ca5188c2d357-parameters","parameter":[{"name":"subject","valueString":"8d4ec26c-6284-4a96-966a-1e1c56f3b90b"}]}],"extension":[{"url":"http://hl7.org/fhir/us/cqfmeasures/StructureDefinition/cqfm-inputParameters","valueReference":{"reference":"#4cb7802c-9655-4e05-9ae7-ca5188c2d357-parameters"}},{"url":"http://hl7.org/fhir/us/cqfmeasures/StructureDefinition/cqfm-testCaseDescription","valueMarkdown":"EncDx= sepsis (ICD10 coded).  POA is Yes.  \n"}],"modifierExtension":[{"url":"http://hl7.org/fhir/us/cqfmeasures/StructureDefinition/cqfm-isTestCase","valueBoolean":true}],"status":"complete","type":"individual","measure":"https://madie.cms.gov/Measure/SevereObstetricComplicationsFHIR","period":{"start":"2024-01-01","end":"2024-12-31"},"group":[{"population":[{"code":{"coding":[{"system":"http://terminology.hl7.org/CodeSystem/measure-population","code":"initial-population","display":"Initial Population"}]},"count":1},{"code":{"coding":[{"system":"http://terminology.hl7.org/CodeSystem/measure-population","code":"denominator","display":"Denominator"}]},"count":1},{"code":{"coding":[{"system":"http://terminology.hl7.org/CodeSystem/measure-population","code":"denominator-exclusion","display":"Denominator Exclusion"}]},"count":0},{"code":{"coding":[{"system":"http://terminology.hl7.org/CodeSystem/measure-population","code":"numerator","display":"Numerator"}]},"count":0}]}],"evaluatedResource":[{"reference":"Patient/8d4ec26c-6284-4a96-966a-1e1c56f3b90b"},{"reference":"Observation/5def77df-b7fe-4d12-a801-a6242c50fc39"},{"reference":"Observation/0bc6a60a-93eb-4148-824c-7231b28c3656"},{"reference":"Encounter/aef5c983-75f1-4b69-b910-80f73f850a4a"},{"reference":"Procedure/632bccdd-f090-4bf0-bbc0-84280860d500"},{"reference":"Condition/a552f313-6f96-46f8-831b-36be09ebf264"},{"reference":"Coverage/468756b2-dbe1-48f3-a776-bc1d3b081e0d"},{"reference":"Organization/71ab877e-5e9e-4f16-bb98-cfa05a38bee6"},{"reference":"Practitioner/a8d708cb-aa6a-469e-b936-39d37bf0be14"}]},"request":{"method":"PUT","url":"MeasureReport/7be1ab52-65b6-4027-9738-fb103075579c"}}]}