{"resourceType":"Bundle","id":"tests-03663479-ff58-4890-aa59-338b05059d99-bundle","type":"transaction","entry":[{"fullUrl":"https://madie.cms.gov/Patient/03663479-ff58-4890-aa59-338b05059d99","resource":{"resourceType":"Patient","id":"03663479-ff58-4890-aa59-338b05059d99","meta":{"profile":["http://hl7.org/fhir/us/qicore/StructureDefinition/qicore-patient"]},"text":{"status":"generated","div":"<div xmlns=\"http://www.w3.org/1999/xhtml\"><div class=\"hapiHeaderText\">AssPrfDelRelvDt1MinAftEncIPEnds <b>DENOMFAIL </b></div><table class=\"hapiPropertyTable\"><tbody><tr><td>Date of birth</td><td><span>01 February 2004</span></td></tr></tbody></table></div>"},"extension":[{"url":"http://hl7.org/fhir/us/core/StructureDefinition/us-core-race","extension":[{"url":"ombCategory","valueCoding":{"system":"urn:oid:2.16.840.1.113883.6.238","code":"1002-5","display":"American Indian or Alaska Native","userSelected":true}},{"url":"text","valueString":"American Indian or Alaska Native"}]},{"url":"http://hl7.org/fhir/us/core/StructureDefinition/us-core-ethnicity","extension":[{"url":"ombCategory","valueCoding":{"system":"urn:oid:2.16.840.1.113883.6.238","code":"2135-2","display":"Hispanic or Latino","userSelected":true}},{"url":"text","valueString":"Hispanic or Latino"}]}],"identifier":[{"type":{"coding":[{"system":"http://terminology.hl7.org/CodeSystem/v2-0203","code":"MR"}]},"system":"https://bonnie-fhir.healthit.gov/","value":"633b3f9e0968f80122503ccb"}],"active":true,"name":[{"use":"usual","family":"DENOMFail","given":["AssPrfDelRelvDt1MinAftEncIPEnds"]}],"gender":"female","birthDate":"2004-02-01"},"request":{"method":"PUT","url":"Patient/03663479-ff58-4890-aa59-338b05059d99"}},{"fullUrl":"https://madie.cms.gov/Observation/5cc34ffc-d25c-4c0d-adc1-273ee9149fc0","resource":{"resourceType":"Observation","id":"5cc34ffc-d25c-4c0d-adc1-273ee9149fc0","meta":{"profile":["http://hl7.org/fhir/us/qicore/StructureDefinition/qicore-observation"]},"status":"final","category":[{"coding":[{"system":"http://terminology.hl7.org/CodeSystem/observation-category","code":"exam","display":"exam","userSelected":true}]}],"code":{"coding":[{"system":"http://loinc.org","code":"93857-1"}]},"subject":{"reference":"Patient/03663479-ff58-4890-aa59-338b05059d99"},"effectiveDateTime":"2024-02-05T08:16:00.000+00:00","valueDateTime":"2024-02-01T08:00:00+00:00"},"request":{"method":"PUT","url":"Observation/5cc34ffc-d25c-4c0d-adc1-273ee9149fc0"}},{"fullUrl":"https://madie.cms.gov/Observation/63084c2c-41b6-4105-b901-85b31e437667","resource":{"resourceType":"Observation","id":"63084c2c-41b6-4105-b901-85b31e437667","meta":{"profile":["http://hl7.org/fhir/us/qicore/StructureDefinition/qicore-observation"]},"status":"final","category":[{"coding":[{"system":"http://terminology.hl7.org/CodeSystem/observation-category","code":"exam","display":"exam","userSelected":true}]}],"code":{"coding":[{"system":"http://loinc.org","code":"11778-8"}]},"subject":{"reference":"Patient/03663479-ff58-4890-aa59-338b05059d99"},"effectiveDateTime":"2024-02-01T08:00:00.000+00:00","valueDateTime":"2024-02-01T08:00:00.000+00:00"},"request":{"method":"PUT","url":"Observation/63084c2c-41b6-4105-b901-85b31e437667"}},{"fullUrl":"https://madie.cms.gov/Encounter/c6863750-23df-4a25-b237-9d543c345533","resource":{"resourceType":"Encounter","id":"c6863750-23df-4a25-b237-9d543c345533","meta":{"profile":["http://hl7.org/fhir/us/qicore/StructureDefinition/qicore-encounter"]},"status":"finished","class":{"system":"http://terminology.hl7.org/CodeSystem/v3-ActCode","code":"IMP","display":"inpatient encounter"},"type":[{"coding":[{"system":"http://snomed.info/sct","code":"183452005"}]}],"subject":{"reference":"Patient/03663479-ff58-4890-aa59-338b05059d99"},"period":{"start":"2024-02-01T08:00:00.000Z","end":"2024-02-05T08:15:00.000Z"}},"request":{"method":"PUT","url":"Encounter/c6863750-23df-4a25-b237-9d543c345533"}},{"fullUrl":"https://madie.cms.gov/Coverage/830ff47e-bf2d-4a7e-984b-bc2640d475d3","resource":{"resourceType":"Coverage","id":"830ff47e-bf2d-4a7e-984b-bc2640d475d3","status":"active","beneficiary":{"reference":"Patient/03663479-ff58-4890-aa59-338b05059d99"},"period":{"start":"2004-02-01T08:00:00.000Z"},"payor":[{"reference":"Organization/6352b4b6-5a17-4c1d-93bf-963c7fc688c8"}]},"request":{"method":"PUT","url":"Coverage/830ff47e-bf2d-4a7e-984b-bc2640d475d3"}},{"fullUrl":"https://madie.cms.gov/Procedure/cfa191e0-e79e-4d6c-9189-a629cdc63bd2","resource":{"resourceType":"Procedure","id":"cfa191e0-e79e-4d6c-9189-a629cdc63bd2","meta":{"profile":["http://hl7.org/fhir/us/qicore/StructureDefinition/qicore-procedure"]},"extension":[{"url":"http://hl7.org/fhir/us/qicore/StructureDefinition/qicore-recorded","valueDateTime":"2013-04-05T09:35:00-04:00"}],"status":"completed","code":{"coding":[{"system":"http://snomed.info/sct","code":"10745001"}]},"subject":{"reference":"Patient/03663479-ff58-4890-aa59-338b05059d99"},"performedPeriod":{"start":"2024-02-01T08:00:00.000Z","end":"2024-02-05T08:15:00.000Z"}},"request":{"method":"PUT","url":"Procedure/cfa191e0-e79e-4d6c-9189-a629cdc63bd2"}},{"fullUrl":"https://madie.cms.gov/Organization/6352b4b6-5a17-4c1d-93bf-963c7fc688c8","resource":{"resourceType":"Organization","id":"6352b4b6-5a17-4c1d-93bf-963c7fc688c8","meta":{"profile":["http://hl7.org/fhir/us/qicore/StructureDefinition/qicore-organization"]},"identifier":[{"use":"temp","system":"urn:oid:2.16.840.1.113883.4.4","value":"21-3259825"}],"active":true,"type":[{"coding":[{"system":"http://terminology.hl7.org/CodeSystem/organization-type","code":"pay","display":"Payer"}]}],"name":"Blue Cross Blue Shield of Texas","telecom":[{"system":"phone","value":"(+1) 972-766-6900"}],"address":[{"use":"billing","type":"postal","line":["P.O. Box 660044"],"city":"Dallas","state":"TX","postalCode":"75266-0044","country":"USA"}]},"request":{"method":"PUT","url":"Organization/6352b4b6-5a17-4c1d-93bf-963c7fc688c8"}},{"fullUrl":"https://madie.cms.gov/Practitioner/cc5929c5-6a26-4c78-b6d0-d768e5bd0782","resource":{"resourceType":"Practitioner","id":"cc5929c5-6a26-4c78-b6d0-d768e5bd0782","identifier":[{"system":"http://hl7.org/fhir/sid/us-npi","value":"123456"}],"name":[{"family":"Evil","prefix":["Dr"]}]},"request":{"method":"PUT","url":"Practitioner/cc5929c5-6a26-4c78-b6d0-d768e5bd0782"}},{"fullUrl":"https://madie.cms.gov/MeasureReport/5b9e1a5a-f6a3-43da-9fcc-dfd89bf5b60e","resource":{"resourceType":"MeasureReport","id":"5b9e1a5a-f6a3-43da-9fcc-dfd89bf5b60e","meta":{"profile":["http://hl7.org/fhir/us/cqfmeasures/StructureDefinition/test-case-cqfm"]},"contained":[{"resourceType":"Parameters","id":"38a2435d-cf98-4d53-b548-8f69b428c12e-parameters","parameter":[{"name":"subject","valueString":"03663479-ff58-4890-aa59-338b05059d99"}]}],"extension":[{"url":"http://hl7.org/fhir/us/cqfmeasures/StructureDefinition/cqfm-inputParameters","valueReference":{"reference":"#38a2435d-cf98-4d53-b548-8f69b428c12e-parameters"}},{"url":"http://hl7.org/fhir/us/cqfmeasures/StructureDefinition/cqfm-testCaseDescription","valueMarkdown":"Relevant date/Time of delivery (based on assessment performed) is equal to 1 minute after the encounter ends.\n"}],"modifierExtension":[{"url":"http://hl7.org/fhir/us/cqfmeasures/StructureDefinition/cqfm-isTestCase","valueBoolean":true}],"status":"complete","type":"individual","measure":"https://madie.cms.gov/Measure/SevereObstetricComplicationsFHIR","period":{"start":"2024-01-01","end":"2024-12-31"},"group":[{"population":[{"code":{"coding":[{"system":"http://terminology.hl7.org/CodeSystem/measure-population","code":"initial-population","display":"Initial Population"}]},"count":1},{"code":{"coding":[{"system":"http://terminology.hl7.org/CodeSystem/measure-population","code":"denominator","display":"Denominator"}]},"count":0},{"code":{"coding":[{"system":"http://terminology.hl7.org/CodeSystem/measure-population","code":"denominator-exclusion","display":"Denominator Exclusion"}]},"count":0},{"code":{"coding":[{"system":"http://terminology.hl7.org/CodeSystem/measure-population","code":"numerator","display":"Numerator"}]},"count":0}]}],"evaluatedResource":[{"reference":"Patient/03663479-ff58-4890-aa59-338b05059d99"},{"reference":"Observation/5cc34ffc-d25c-4c0d-adc1-273ee9149fc0"},{"reference":"Observation/63084c2c-41b6-4105-b901-85b31e437667"},{"reference":"Encounter/c6863750-23df-4a25-b237-9d543c345533"},{"reference":"Coverage/830ff47e-bf2d-4a7e-984b-bc2640d475d3"},{"reference":"Procedure/cfa191e0-e79e-4d6c-9189-a629cdc63bd2"},{"reference":"Organization/6352b4b6-5a17-4c1d-93bf-963c7fc688c8"},{"reference":"Practitioner/cc5929c5-6a26-4c78-b6d0-d768e5bd0782"}]},"request":{"method":"PUT","url":"MeasureReport/5b9e1a5a-f6a3-43da-9fcc-dfd89bf5b60e"}}]}