{"resourceType":"Bundle","id":"tests-b9f49409-8834-4a9d-983b-9d338b2d458c-bundle","type":"transaction","entry":[{"fullUrl":"https://madie.cms.gov/Patient/b9f49409-8834-4a9d-983b-9d338b2d458c","resource":{"resourceType":"Patient","id":"b9f49409-8834-4a9d-983b-9d338b2d458c","meta":{"profile":["http://hl7.org/fhir/us/qicore/StructureDefinition/qicore-patient"]},"text":{"status":"generated","div":"<div xmlns=\"http://www.w3.org/1999/xhtml\"><div class=\"hapiHeaderText\">AssPrfDelRsltDtTime_B4IPStart <b>DENOMFAIL </b></div><table class=\"hapiPropertyTable\"><tbody><tr><td>Date of birth</td><td><span>01 February 2004</span></td></tr></tbody></table></div>"},"extension":[{"url":"http://hl7.org/fhir/us/core/StructureDefinition/us-core-race","extension":[{"url":"ombCategory","valueCoding":{"system":"urn:oid:2.16.840.1.113883.6.238","code":"1002-5","display":"American Indian or Alaska Native","userSelected":true}},{"url":"text","valueString":"American Indian or Alaska Native"}]},{"url":"http://hl7.org/fhir/us/core/StructureDefinition/us-core-ethnicity","extension":[{"url":"ombCategory","valueCoding":{"system":"urn:oid:2.16.840.1.113883.6.238","code":"2135-2","display":"Hispanic or Latino","userSelected":true}},{"url":"text","valueString":"Hispanic or Latino"}]}],"identifier":[{"type":{"coding":[{"system":"http://terminology.hl7.org/CodeSystem/v2-0203","code":"MR"}]},"system":"https://bonnie-fhir.healthit.gov/","value":"633b3f9e0968f80122503ccd"}],"active":true,"name":[{"use":"usual","family":"DENOMFail","given":["AssPrfDelRsltDtTime_B4IPStart"]}],"gender":"female","birthDate":"2004-02-01"},"request":{"method":"PUT","url":"Patient/b9f49409-8834-4a9d-983b-9d338b2d458c"}},{"fullUrl":"https://madie.cms.gov/Observation/8e5c9400-f0df-4140-8df9-7720373efe68","resource":{"resourceType":"Observation","id":"8e5c9400-f0df-4140-8df9-7720373efe68","meta":{"profile":["http://hl7.org/fhir/us/qicore/StructureDefinition/qicore-observation"]},"status":"final","category":[{"coding":[{"system":"http://terminology.hl7.org/CodeSystem/observation-category","code":"exam","display":"exam","userSelected":true}]}],"code":{"coding":[{"system":"http://loinc.org","code":"93857-1"}]},"subject":{"reference":"Patient/b9f49409-8834-4a9d-983b-9d338b2d458c"},"effectiveDateTime":"2024-02-01T08:00:00.000+00:00","valueDateTime":"2024-02-01T07:59:00+00:00"},"request":{"method":"PUT","url":"Observation/8e5c9400-f0df-4140-8df9-7720373efe68"}},{"fullUrl":"https://madie.cms.gov/Observation/37988190-9817-44c9-a3e9-34e99d4ed4d6","resource":{"resourceType":"Observation","id":"37988190-9817-44c9-a3e9-34e99d4ed4d6","meta":{"profile":["http://hl7.org/fhir/us/qicore/StructureDefinition/qicore-observation"]},"status":"final","category":[{"coding":[{"system":"http://terminology.hl7.org/CodeSystem/observation-category","code":"exam","display":"exam","userSelected":true}]}],"code":{"coding":[{"system":"http://loinc.org","code":"11778-8"}]},"subject":{"reference":"Patient/b9f49409-8834-4a9d-983b-9d338b2d458c"},"effectiveDateTime":"2024-02-01T08:00:00.000+00:00","valueDateTime":"2024-02-01T08:00:00.000+00:00"},"request":{"method":"PUT","url":"Observation/37988190-9817-44c9-a3e9-34e99d4ed4d6"}},{"fullUrl":"https://madie.cms.gov/Encounter/856fe33e-ae09-4f5a-9719-83b2d08d58f8","resource":{"resourceType":"Encounter","id":"856fe33e-ae09-4f5a-9719-83b2d08d58f8","meta":{"profile":["http://hl7.org/fhir/us/qicore/StructureDefinition/qicore-encounter"]},"status":"finished","class":{"system":"http://terminology.hl7.org/CodeSystem/v3-ActCode","code":"IMP","display":"inpatient encounter"},"type":[{"coding":[{"system":"http://snomed.info/sct","code":"183452005"}]}],"subject":{"reference":"Patient/b9f49409-8834-4a9d-983b-9d338b2d458c"},"period":{"start":"2024-02-01T08:00:00.000Z","end":"2024-02-05T08:15:00.000Z"}},"request":{"method":"PUT","url":"Encounter/856fe33e-ae09-4f5a-9719-83b2d08d58f8"}},{"fullUrl":"https://madie.cms.gov/Coverage/f245afc3-463e-496f-a0b8-3ddeb39b89d9","resource":{"resourceType":"Coverage","id":"f245afc3-463e-496f-a0b8-3ddeb39b89d9","status":"active","beneficiary":{"reference":"Patient/b9f49409-8834-4a9d-983b-9d338b2d458c"},"period":{"start":"2004-02-01T08:00:00.000Z"},"payor":[{"reference":"Organization/f7e090a8-f53b-45fe-a8ea-7aaefa76d844"}]},"request":{"method":"PUT","url":"Coverage/f245afc3-463e-496f-a0b8-3ddeb39b89d9"}},{"fullUrl":"https://madie.cms.gov/Procedure/5142dc0b-2f8e-4d0c-a218-8112ea366f3a","resource":{"resourceType":"Procedure","id":"5142dc0b-2f8e-4d0c-a218-8112ea366f3a","meta":{"profile":["http://hl7.org/fhir/us/qicore/StructureDefinition/qicore-procedure"]},"extension":[{"url":"http://hl7.org/fhir/us/qicore/StructureDefinition/qicore-recorded","valueDateTime":"2013-04-05T09:35:00-04:00"}],"status":"completed","code":{"coding":[{"system":"http://snomed.info/sct","code":"10745001"}]},"subject":{"reference":"Patient/b9f49409-8834-4a9d-983b-9d338b2d458c"},"performedPeriod":{"start":"2024-02-01T08:00:00.000Z","end":"2024-02-05T08:15:00.000Z"}},"request":{"method":"PUT","url":"Procedure/5142dc0b-2f8e-4d0c-a218-8112ea366f3a"}},{"fullUrl":"https://madie.cms.gov/Organization/f7e090a8-f53b-45fe-a8ea-7aaefa76d844","resource":{"resourceType":"Organization","id":"f7e090a8-f53b-45fe-a8ea-7aaefa76d844","meta":{"profile":["http://hl7.org/fhir/us/qicore/StructureDefinition/qicore-organization"]},"identifier":[{"use":"temp","system":"urn:oid:2.16.840.1.113883.4.4","value":"21-3259825"}],"active":true,"type":[{"coding":[{"system":"http://terminology.hl7.org/CodeSystem/organization-type","code":"pay","display":"Payer"}]}],"name":"Blue Cross Blue Shield of Texas","telecom":[{"system":"phone","value":"(+1) 972-766-6900"}],"address":[{"use":"billing","type":"postal","line":["P.O. Box 660044"],"city":"Dallas","state":"TX","postalCode":"75266-0044","country":"USA"}]},"request":{"method":"PUT","url":"Organization/f7e090a8-f53b-45fe-a8ea-7aaefa76d844"}},{"fullUrl":"https://madie.cms.gov/Practitioner/4977b8ee-adf9-46d3-b423-bc04b5cd1629","resource":{"resourceType":"Practitioner","id":"4977b8ee-adf9-46d3-b423-bc04b5cd1629","identifier":[{"system":"http://hl7.org/fhir/sid/us-npi","value":"123456"}],"name":[{"family":"Evil","prefix":["Dr"]}]},"request":{"method":"PUT","url":"Practitioner/4977b8ee-adf9-46d3-b423-bc04b5cd1629"}},{"fullUrl":"https://madie.cms.gov/MeasureReport/ba59b72c-6fe8-473d-b985-92bfe90c370a","resource":{"resourceType":"MeasureReport","id":"ba59b72c-6fe8-473d-b985-92bfe90c370a","meta":{"profile":["http://hl7.org/fhir/us/cqfmeasures/StructureDefinition/test-case-cqfm"]},"contained":[{"resourceType":"Parameters","id":"49d281a4-52ea-4e3f-8bb1-5b18855ffb72-parameters","parameter":[{"name":"subject","valueString":"b9f49409-8834-4a9d-983b-9d338b2d458c"}]}],"extension":[{"url":"http://hl7.org/fhir/us/cqfmeasures/StructureDefinition/cqfm-inputParameters","valueReference":{"reference":"#49d281a4-52ea-4e3f-8bb1-5b18855ffb72-parameters"}},{"url":"http://hl7.org/fhir/us/cqfmeasures/StructureDefinition/cqfm-testCaseDescription","valueMarkdown":"Result date/Time of delivery (based on assessment performed) is equal to 1 minute before the encounter starts\n\n"}],"modifierExtension":[{"url":"http://hl7.org/fhir/us/cqfmeasures/StructureDefinition/cqfm-isTestCase","valueBoolean":true}],"status":"complete","type":"individual","measure":"https://madie.cms.gov/Measure/SevereObstetricComplicationsFHIR","period":{"start":"2024-01-01","end":"2024-12-31"},"group":[{"population":[{"code":{"coding":[{"system":"http://terminology.hl7.org/CodeSystem/measure-population","code":"initial-population","display":"Initial Population"}]},"count":1},{"code":{"coding":[{"system":"http://terminology.hl7.org/CodeSystem/measure-population","code":"denominator","display":"Denominator"}]},"count":0},{"code":{"coding":[{"system":"http://terminology.hl7.org/CodeSystem/measure-population","code":"denominator-exclusion","display":"Denominator Exclusion"}]},"count":0},{"code":{"coding":[{"system":"http://terminology.hl7.org/CodeSystem/measure-population","code":"numerator","display":"Numerator"}]},"count":0}]}],"evaluatedResource":[{"reference":"Patient/b9f49409-8834-4a9d-983b-9d338b2d458c"},{"reference":"Observation/8e5c9400-f0df-4140-8df9-7720373efe68"},{"reference":"Observation/37988190-9817-44c9-a3e9-34e99d4ed4d6"},{"reference":"Encounter/856fe33e-ae09-4f5a-9719-83b2d08d58f8"},{"reference":"Coverage/f245afc3-463e-496f-a0b8-3ddeb39b89d9"},{"reference":"Procedure/5142dc0b-2f8e-4d0c-a218-8112ea366f3a"},{"reference":"Organization/f7e090a8-f53b-45fe-a8ea-7aaefa76d844"},{"reference":"Practitioner/4977b8ee-adf9-46d3-b423-bc04b5cd1629"}]},"request":{"method":"PUT","url":"MeasureReport/ba59b72c-6fe8-473d-b985-92bfe90c370a"}}]}