{"resourceType":"Bundle","id":"tests-0ce0fd7d-5a87-4259-b77e-5c801e9df149-bundle","type":"transaction","entry":[{"fullUrl":"https://madie.cms.gov/Patient/0ce0fd7d-5a87-4259-b77e-5c801e9df149","resource":{"resourceType":"Patient","id":"0ce0fd7d-5a87-4259-b77e-5c801e9df149","meta":{"profile":["http://hl7.org/fhir/us/qicore/StructureDefinition/qicore-patient"]},"text":{"status":"generated","div":"<div xmlns=\"http://www.w3.org/1999/xhtml\"><div class=\"hapiHeaderText\">Test2EDDMinutesImpactOnWksGest <b>DENOMPASS </b></div><table class=\"hapiPropertyTable\"><tbody><tr><td>Date of birth</td><td><span>01 February 1958</span></td></tr></tbody></table></div>"},"extension":[{"url":"http://hl7.org/fhir/us/core/StructureDefinition/us-core-race","extension":[{"url":"ombCategory","valueCoding":{"system":"urn:oid:2.16.840.1.113883.6.238","code":"1002-5","display":"American Indian or Alaska Native","userSelected":true}},{"url":"text","valueString":"American Indian or Alaska Native"}]},{"url":"http://hl7.org/fhir/us/core/StructureDefinition/us-core-ethnicity","extension":[{"url":"ombCategory","valueCoding":{"system":"urn:oid:2.16.840.1.113883.6.238","code":"2135-2","display":"Hispanic or Latino","userSelected":true}},{"url":"text","valueString":"Hispanic or Latino"}]}],"identifier":[{"type":{"coding":[{"system":"http://terminology.hl7.org/CodeSystem/v2-0203","code":"MR"}]},"system":"https://bonnie-fhir.healthit.gov/","value":"633b3f9e0968f80122503cd8"}],"active":true,"name":[{"use":"usual","family":"DENOMPass","given":["Test2EDDMinutesImpactOnWksGest"]}],"gender":"female","birthDate":"1970-02-01"},"request":{"method":"PUT","url":"Patient/0ce0fd7d-5a87-4259-b77e-5c801e9df149"}},{"fullUrl":"https://madie.cms.gov/Observation/37c5b880-7cd4-42a8-860e-5835e7c49b89","resource":{"resourceType":"Observation","id":"37c5b880-7cd4-42a8-860e-5835e7c49b89","meta":{"profile":["http://hl7.org/fhir/us/qicore/StructureDefinition/qicore-observation"]},"status":"final","category":[{"coding":[{"system":"http://terminology.hl7.org/CodeSystem/observation-category","code":"exam","display":"exam","userSelected":true}]}],"code":{"coding":[{"system":"http://loinc.org","code":"93857-1"}]},"subject":{"reference":"Patient/0ce0fd7d-5a87-4259-b77e-5c801e9df149"},"effectiveDateTime":"2024-02-01T08:00:00.000+00:00","valueDateTime":"2024-02-01T08:00:00+00:00"},"request":{"method":"PUT","url":"Observation/37c5b880-7cd4-42a8-860e-5835e7c49b89"}},{"fullUrl":"https://madie.cms.gov/Observation/48713cf2-687e-4c66-b505-9b402292e5f8","resource":{"resourceType":"Observation","id":"48713cf2-687e-4c66-b505-9b402292e5f8","meta":{"profile":["http://hl7.org/fhir/us/qicore/StructureDefinition/qicore-observation"]},"status":"final","category":[{"coding":[{"system":"http://terminology.hl7.org/CodeSystem/observation-category","code":"exam","display":"exam","userSelected":true}]}],"code":{"coding":[{"system":"http://loinc.org","code":"11778-8"}]},"subject":{"reference":"Patient/0ce0fd7d-5a87-4259-b77e-5c801e9df149"},"effectiveDateTime":"2023-04-13T08:01:00.000+00:00","valueDateTime":"2024-02-01T07:59:00.000+00:00"},"request":{"method":"PUT","url":"Observation/48713cf2-687e-4c66-b505-9b402292e5f8"}},{"fullUrl":"https://madie.cms.gov/Encounter/e728fc04-4880-4da7-8715-166c7e554d46","resource":{"resourceType":"Encounter","id":"e728fc04-4880-4da7-8715-166c7e554d46","meta":{"profile":["http://hl7.org/fhir/us/qicore/StructureDefinition/qicore-encounter"]},"status":"finished","class":{"system":"http://terminology.hl7.org/CodeSystem/v3-ActCode","code":"IMP","display":"inpatient encounter"},"type":[{"coding":[{"system":"http://snomed.info/sct","code":"183452005"}]}],"subject":{"reference":"Patient/0ce0fd7d-5a87-4259-b77e-5c801e9df149"},"period":{"start":"2024-01-30T08:00:00.000Z","end":"2024-02-05T08:15:00.000Z"}},"request":{"method":"PUT","url":"Encounter/e728fc04-4880-4da7-8715-166c7e554d46"}},{"fullUrl":"https://madie.cms.gov/Procedure/af05d8a1-8d2e-4231-bb67-7d3f7d343dab","resource":{"resourceType":"Procedure","id":"af05d8a1-8d2e-4231-bb67-7d3f7d343dab","meta":{"profile":["http://hl7.org/fhir/us/qicore/StructureDefinition/qicore-procedure"]},"extension":[{"url":"http://hl7.org/fhir/us/qicore/StructureDefinition/qicore-recorded","valueDateTime":"2013-04-05T09:35:00-04:00"}],"status":"completed","code":{"coding":[{"system":"http://snomed.info/sct","code":"10745001"}]},"subject":{"reference":"Patient/0ce0fd7d-5a87-4259-b77e-5c801e9df149"},"performedPeriod":{"start":"2024-02-01T08:00:00.000Z"}},"request":{"method":"PUT","url":"Procedure/af05d8a1-8d2e-4231-bb67-7d3f7d343dab"}},{"fullUrl":"https://madie.cms.gov/Coverage/e3970058-2e18-4681-9c83-b2898a416b16","resource":{"resourceType":"Coverage","id":"e3970058-2e18-4681-9c83-b2898a416b16","meta":{"profile":["http://hl7.org/fhir/us/qicore/StructureDefinition/qicore-coverage"]},"status":"active","beneficiary":{"reference":"Patient/0ce0fd7d-5a87-4259-b77e-5c801e9df149"},"payor":[{"reference":"Organization/2929f114-4cec-4824-a3ee-842e19bf0b5c"}]},"request":{"method":"PUT","url":"Coverage/e3970058-2e18-4681-9c83-b2898a416b16"}},{"fullUrl":"https://madie.cms.gov/Organization/2929f114-4cec-4824-a3ee-842e19bf0b5c","resource":{"resourceType":"Organization","id":"2929f114-4cec-4824-a3ee-842e19bf0b5c","meta":{"profile":["http://hl7.org/fhir/us/qicore/StructureDefinition/qicore-organization"]},"identifier":[{"use":"temp","system":"urn:oid:2.16.840.1.113883.4.4","value":"21-3259825"}],"active":true,"type":[{"coding":[{"system":"http://terminology.hl7.org/CodeSystem/organization-type","code":"pay","display":"Payer"}]}],"name":"Blue Cross Blue Shield of Texas","telecom":[{"system":"phone","value":"(+1) 972-766-6900"}],"address":[{"use":"billing","type":"postal","line":["P.O. Box 660044"],"city":"Dallas","state":"TX","postalCode":"75266-0044","country":"USA"}]},"request":{"method":"PUT","url":"Organization/2929f114-4cec-4824-a3ee-842e19bf0b5c"}},{"fullUrl":"https://madie.cms.gov/Practitioner/5162f21c-8520-443c-9dd3-c64de4a3ff91","resource":{"resourceType":"Practitioner","id":"5162f21c-8520-443c-9dd3-c64de4a3ff91","identifier":[{"system":"http://hl7.org/fhir/sid/us-npi","value":"123456"}],"name":[{"family":"Evil","prefix":["Dr"]}]},"request":{"method":"PUT","url":"Practitioner/5162f21c-8520-443c-9dd3-c64de4a3ff91"}},{"fullUrl":"https://madie.cms.gov/MeasureReport/8a40da87-66cc-40a6-af92-50b395583fb0","resource":{"resourceType":"MeasureReport","id":"8a40da87-66cc-40a6-af92-50b395583fb0","meta":{"profile":["http://hl7.org/fhir/us/cqfmeasures/StructureDefinition/test-case-cqfm"]},"contained":[{"resourceType":"Parameters","id":"20493a7a-4ebf-4b61-8856-df9ac099a588-parameters","parameter":[{"name":"subject","valueString":"0ce0fd7d-5a87-4259-b77e-5c801e9df149"}]}],"extension":[{"url":"http://hl7.org/fhir/us/cqfmeasures/StructureDefinition/cqfm-inputParameters","valueReference":{"reference":"#20493a7a-4ebf-4b61-8856-df9ac099a588-parameters"}},{"url":"http://hl7.org/fhir/us/cqfmeasures/StructureDefinition/cqfm-testCaseDescription","valueMarkdown":"\"Delivery date = 2/1/2012 @0800.  EDD = 2/1/2012\n @0759.  Weeks gestation = 40.\"  To test the impact on calculated weeks gestation, I temporarily changed the logic of this definition:  \"Del Enc with CGA Greater than or Equal to 20 Weeks\" to = 40.\n"}],"modifierExtension":[{"url":"http://hl7.org/fhir/us/cqfmeasures/StructureDefinition/cqfm-isTestCase","valueBoolean":true}],"status":"complete","type":"individual","measure":"https://madie.cms.gov/Measure/SevereObstetricComplicationsFHIR","period":{"start":"2024-01-01","end":"2024-12-31"},"group":[{"population":[{"code":{"coding":[{"system":"http://terminology.hl7.org/CodeSystem/measure-population","code":"initial-population","display":"Initial Population"}]},"count":1},{"code":{"coding":[{"system":"http://terminology.hl7.org/CodeSystem/measure-population","code":"denominator","display":"Denominator"}]},"count":1},{"code":{"coding":[{"system":"http://terminology.hl7.org/CodeSystem/measure-population","code":"denominator-exclusion","display":"Denominator Exclusion"}]},"count":0},{"code":{"coding":[{"system":"http://terminology.hl7.org/CodeSystem/measure-population","code":"numerator","display":"Numerator"}]},"count":0}]}],"evaluatedResource":[{"reference":"Patient/0ce0fd7d-5a87-4259-b77e-5c801e9df149"},{"reference":"Observation/37c5b880-7cd4-42a8-860e-5835e7c49b89"},{"reference":"Observation/48713cf2-687e-4c66-b505-9b402292e5f8"},{"reference":"Encounter/e728fc04-4880-4da7-8715-166c7e554d46"},{"reference":"Procedure/af05d8a1-8d2e-4231-bb67-7d3f7d343dab"},{"reference":"Coverage/e3970058-2e18-4681-9c83-b2898a416b16"},{"reference":"Organization/2929f114-4cec-4824-a3ee-842e19bf0b5c"},{"reference":"Practitioner/5162f21c-8520-443c-9dd3-c64de4a3ff91"}]},"request":{"method":"PUT","url":"MeasureReport/8a40da87-66cc-40a6-af92-50b395583fb0"}}]}