{"resourceType":"Bundle","id":"tests-1d2effc9-a7c0-4eb9-806d-9665500abd49-bundle","type":"transaction","entry":[{"fullUrl":"https://madie.cms.gov/Patient/1d2effc9-a7c0-4eb9-806d-9665500abd49","resource":{"resourceType":"Patient","id":"1d2effc9-a7c0-4eb9-806d-9665500abd49","meta":{"profile":["http://hl7.org/fhir/us/qicore/StructureDefinition/qicore-patient"]},"text":{"status":"generated","div":"<div xmlns=\"http://www.w3.org/1999/xhtml\"><div class=\"hapiHeaderText\">BloodTransfusionRelvDtTimeMidnightDayEncEnds <b>NUMFail </b></div><table class=\"hapiPropertyTable\"><tbody><tr><td>Date of birth</td><td><span>01 February 2004</span></td></tr></tbody></table></div>"},"extension":[{"url":"http://hl7.org/fhir/us/core/StructureDefinition/us-core-race","extension":[{"url":"ombCategory","valueCoding":{"system":"urn:oid:2.16.840.1.113883.6.238","code":"1002-5","display":"American Indian or Alaska Native","userSelected":true}},{"url":"text","valueString":"American Indian or Alaska Native"}]},{"url":"http://hl7.org/fhir/us/core/StructureDefinition/us-core-ethnicity","extension":[{"url":"ombCategory","valueCoding":{"system":"urn:oid:2.16.840.1.113883.6.238","code":"2135-2","display":"Hispanic or Latino","userSelected":true}},{"url":"text","valueString":"Hispanic or Latino"}]}],"identifier":[{"type":{"coding":[{"system":"http://terminology.hl7.org/CodeSystem/v2-0203","code":"MR"}]},"system":"https://bonnie-fhir.healthit.gov/","value":"633b3f9f0968f80122503cdb"}],"active":true,"name":[{"use":"usual","family":"NUMFail","given":["BloodTransfusionRelvDtTimeMidnightDayEncEnds"]}],"gender":"female","birthDate":"2004-02-01"},"request":{"method":"PUT","url":"Patient/1d2effc9-a7c0-4eb9-806d-9665500abd49"}},{"fullUrl":"https://madie.cms.gov/Observation/7b73e773-03a3-4aab-976f-4dc84ada3008","resource":{"resourceType":"Observation","id":"7b73e773-03a3-4aab-976f-4dc84ada3008","meta":{"profile":["http://hl7.org/fhir/us/qicore/StructureDefinition/qicore-observation"]},"status":"final","category":[{"coding":[{"system":"http://terminology.hl7.org/CodeSystem/observation-category","code":"exam","display":"exam","userSelected":true}]}],"code":{"coding":[{"system":"http://loinc.org","code":"93857-1"}]},"subject":{"reference":"Patient/1d2effc9-a7c0-4eb9-806d-9665500abd49"},"effectiveDateTime":"2024-02-01T08:00:00.000+00:00","valueDateTime":"2024-02-01T08:00:00+00:00"},"request":{"method":"PUT","url":"Observation/7b73e773-03a3-4aab-976f-4dc84ada3008"}},{"fullUrl":"https://madie.cms.gov/Observation/ff0749ea-b088-42fd-a40f-5b4e4e0ae5e2","resource":{"resourceType":"Observation","id":"ff0749ea-b088-42fd-a40f-5b4e4e0ae5e2","meta":{"profile":["http://hl7.org/fhir/us/qicore/StructureDefinition/qicore-observation"]},"status":"final","category":[{"coding":[{"system":"http://terminology.hl7.org/CodeSystem/observation-category","code":"exam","display":"exam","userSelected":true}]}],"code":{"coding":[{"system":"http://loinc.org","code":"11884-4"}]},"subject":{"reference":"Patient/1d2effc9-a7c0-4eb9-806d-9665500abd49"},"effectiveDateTime":"2024-02-01T08:00:00.000+00:00","valueQuantity":{"value":20,"system":"http://unitsofmeasure.org","code":"wk"}},"request":{"method":"PUT","url":"Observation/ff0749ea-b088-42fd-a40f-5b4e4e0ae5e2"}},{"fullUrl":"https://madie.cms.gov/Observation/3c7ca6d4-dd4b-4065-9a3d-90ad25c736f2","resource":{"resourceType":"Observation","id":"3c7ca6d4-dd4b-4065-9a3d-90ad25c736f2","meta":{"profile":["http://hl7.org/fhir/us/qicore/StructureDefinition/qicore-observation"]},"status":"final","category":[{"coding":[{"system":"http://terminology.hl7.org/CodeSystem/observation-category","code":"exam","display":"exam","userSelected":true}]}],"code":{"coding":[{"system":"http://loinc.org","code":"11884-4"}]},"subject":{"reference":"Patient/1d2effc9-a7c0-4eb9-806d-9665500abd49"},"effectiveDateTime":"2024-02-01T08:01:00.000+00:00"},"request":{"method":"PUT","url":"Observation/3c7ca6d4-dd4b-4065-9a3d-90ad25c736f2"}},{"fullUrl":"https://madie.cms.gov/Encounter/ea7e2a8b-43b1-40cb-9d61-7aeb86c5e5d5","resource":{"resourceType":"Encounter","id":"ea7e2a8b-43b1-40cb-9d61-7aeb86c5e5d5","meta":{"profile":["http://hl7.org/fhir/us/qicore/StructureDefinition/qicore-encounter"]},"status":"finished","class":{"system":"http://terminology.hl7.org/CodeSystem/v3-ActCode","code":"IMP","display":"inpatient encounter"},"type":[{"coding":[{"system":"http://snomed.info/sct","code":"183452005"}]}],"subject":{"reference":"Patient/1d2effc9-a7c0-4eb9-806d-9665500abd49"},"period":{"start":"2024-02-01T08:00:00.000Z","end":"2024-02-05T08:15:00.000Z"}},"request":{"method":"PUT","url":"Encounter/ea7e2a8b-43b1-40cb-9d61-7aeb86c5e5d5"}},{"fullUrl":"https://madie.cms.gov/Coverage/16239bc0-0868-47f4-800c-a4f75bed1c60","resource":{"resourceType":"Coverage","id":"16239bc0-0868-47f4-800c-a4f75bed1c60","status":"active","beneficiary":{"reference":"Patient/1d2effc9-a7c0-4eb9-806d-9665500abd49"},"period":{"start":"2004-02-01T08:00:00.000Z"},"payor":[{"reference":"Organization/0e3ea09c-afaf-4fdd-a6ee-b7ba0411691e"}]},"request":{"method":"PUT","url":"Coverage/16239bc0-0868-47f4-800c-a4f75bed1c60"}},{"fullUrl":"https://madie.cms.gov/Procedure/b5dc154b-cd09-45af-afcb-2c3b2b8df345","resource":{"resourceType":"Procedure","id":"b5dc154b-cd09-45af-afcb-2c3b2b8df345","meta":{"profile":["http://hl7.org/fhir/us/qicore/StructureDefinition/qicore-procedure"]},"extension":[{"url":"http://hl7.org/fhir/us/qicore/StructureDefinition/qicore-recorded","valueDateTime":"2013-04-05T09:35:00-04:00"}],"status":"completed","code":{"coding":[{"system":"http://snomed.info/sct","code":"10745001"}]},"subject":{"reference":"Patient/1d2effc9-a7c0-4eb9-806d-9665500abd49"},"performedPeriod":{"start":"2024-02-01T08:00:00.000Z","end":"2024-02-05T08:15:00.000Z"}},"request":{"method":"PUT","url":"Procedure/b5dc154b-cd09-45af-afcb-2c3b2b8df345"}},{"fullUrl":"https://madie.cms.gov/Procedure/645a01aa-182d-402f-93ad-5a3e1ad7baa0","resource":{"resourceType":"Procedure","id":"645a01aa-182d-402f-93ad-5a3e1ad7baa0","meta":{"profile":["http://hl7.org/fhir/us/qicore/StructureDefinition/qicore-procedure"]},"extension":[{"url":"http://hl7.org/fhir/us/qicore/StructureDefinition/qicore-recorded","valueDateTime":"2024-02-01T00:01:00-04:00"}],"status":"completed","code":{"coding":[{"system":"http://snomed.info/sct","code":"11397000"}]},"subject":{"reference":"Patient/1d2effc9-a7c0-4eb9-806d-9665500abd49"},"performedPeriod":{"start":"2024-02-06T00:00:00.000Z","end":"2024-02-06T11:59:00.000Z"}},"request":{"method":"PUT","url":"Procedure/645a01aa-182d-402f-93ad-5a3e1ad7baa0"}},{"fullUrl":"https://madie.cms.gov/Organization/0e3ea09c-afaf-4fdd-a6ee-b7ba0411691e","resource":{"resourceType":"Organization","id":"0e3ea09c-afaf-4fdd-a6ee-b7ba0411691e","meta":{"profile":["http://hl7.org/fhir/us/qicore/StructureDefinition/qicore-organization"]},"identifier":[{"use":"temp","system":"urn:oid:2.16.840.1.113883.4.4","value":"21-3259825"}],"active":true,"type":[{"coding":[{"system":"http://terminology.hl7.org/CodeSystem/organization-type","code":"pay","display":"Payer"}]}],"name":"Blue Cross Blue Shield of Texas","telecom":[{"system":"phone","value":"(+1) 972-766-6900"}],"address":[{"use":"billing","type":"postal","line":["P.O. Box 660044"],"city":"Dallas","state":"TX","postalCode":"75266-0044","country":"USA"}]},"request":{"method":"PUT","url":"Organization/0e3ea09c-afaf-4fdd-a6ee-b7ba0411691e"}},{"fullUrl":"https://madie.cms.gov/Practitioner/6511d417-0a11-4732-8a8f-59b43c391892","resource":{"resourceType":"Practitioner","id":"6511d417-0a11-4732-8a8f-59b43c391892","identifier":[{"system":"http://hl7.org/fhir/sid/us-npi","value":"123456"}],"name":[{"family":"Evil","prefix":["Dr"]}]},"request":{"method":"PUT","url":"Practitioner/6511d417-0a11-4732-8a8f-59b43c391892"}},{"fullUrl":"https://madie.cms.gov/MeasureReport/880aa236-acf2-46d4-a0da-180ec5da31ba","resource":{"resourceType":"MeasureReport","id":"880aa236-acf2-46d4-a0da-180ec5da31ba","meta":{"profile":["http://hl7.org/fhir/us/cqfmeasures/StructureDefinition/test-case-cqfm"]},"contained":[{"resourceType":"Parameters","id":"19c3ec85-d78f-404e-8616-2a4a35f13868-parameters","parameter":[{"name":"subject","valueString":"1d2effc9-a7c0-4eb9-806d-9665500abd49"}]}],"extension":[{"url":"http://hl7.org/fhir/us/cqfmeasures/StructureDefinition/cqfm-inputParameters","valueReference":{"reference":"#19c3ec85-d78f-404e-8616-2a4a35f13868-parameters"}},{"url":"http://hl7.org/fhir/us/cqfmeasures/StructureDefinition/cqfm-testCaseDescription","valueMarkdown":"Blood Transfusion Relevant Date Time midnight day encounter ends\n"}],"modifierExtension":[{"url":"http://hl7.org/fhir/us/cqfmeasures/StructureDefinition/cqfm-isTestCase","valueBoolean":true}],"status":"complete","type":"individual","measure":"https://madie.cms.gov/Measure/SevereObstetricComplicationsFHIR","period":{"start":"2024-01-01","end":"2024-12-31"},"group":[{"population":[{"code":{"coding":[{"system":"http://terminology.hl7.org/CodeSystem/measure-population","code":"initial-population","display":"Initial Population"}]},"count":1},{"code":{"coding":[{"system":"http://terminology.hl7.org/CodeSystem/measure-population","code":"denominator","display":"Denominator"}]},"count":1},{"code":{"coding":[{"system":"http://terminology.hl7.org/CodeSystem/measure-population","code":"denominator-exclusion","display":"Denominator Exclusion"}]},"count":0},{"code":{"coding":[{"system":"http://terminology.hl7.org/CodeSystem/measure-population","code":"numerator","display":"Numerator"}]},"count":0}]}],"evaluatedResource":[{"reference":"Patient/1d2effc9-a7c0-4eb9-806d-9665500abd49"},{"reference":"Observation/7b73e773-03a3-4aab-976f-4dc84ada3008"},{"reference":"Observation/ff0749ea-b088-42fd-a40f-5b4e4e0ae5e2"},{"reference":"Observation/3c7ca6d4-dd4b-4065-9a3d-90ad25c736f2"},{"reference":"Encounter/ea7e2a8b-43b1-40cb-9d61-7aeb86c5e5d5"},{"reference":"Coverage/16239bc0-0868-47f4-800c-a4f75bed1c60"},{"reference":"Procedure/b5dc154b-cd09-45af-afcb-2c3b2b8df345"},{"reference":"Procedure/645a01aa-182d-402f-93ad-5a3e1ad7baa0"},{"reference":"Organization/0e3ea09c-afaf-4fdd-a6ee-b7ba0411691e"},{"reference":"Practitioner/6511d417-0a11-4732-8a8f-59b43c391892"}]},"request":{"method":"PUT","url":"MeasureReport/880aa236-acf2-46d4-a0da-180ec5da31ba"}}]}