{"resourceType":"Bundle","id":"tests-c273296a-5429-4c99-adc7-55a65a944362-bundle","type":"transaction","entry":[{"fullUrl":"https://madie.cms.gov/Patient/c273296a-5429-4c99-adc7-55a65a944362","resource":{"resourceType":"Patient","id":"c273296a-5429-4c99-adc7-55a65a944362","meta":{"profile":["http://hl7.org/fhir/us/qicore/StructureDefinition/qicore-patient"]},"text":{"status":"generated","div":"<div xmlns=\"http://www.w3.org/1999/xhtml\"><div class=\"hapiHeaderText\">LastAssPrfEGARelvTm_24Hr00Min00Sec_B4LastTmDELRsltDtTime <b>DENOMPASS </b></div><table class=\"hapiPropertyTable\"><tbody><tr><td>Date of birth</td><td><span>01 February 2004</span></td></tr></tbody></table></div>"},"extension":[{"url":"http://hl7.org/fhir/us/core/StructureDefinition/us-core-race","extension":[{"url":"ombCategory","valueCoding":{"system":"urn:oid:2.16.840.1.113883.6.238","code":"1002-5","display":"American Indian or Alaska Native","userSelected":true}},{"url":"text","valueString":"American Indian or Alaska Native"}]},{"url":"http://hl7.org/fhir/us/core/StructureDefinition/us-core-ethnicity","extension":[{"url":"ombCategory","valueCoding":{"system":"urn:oid:2.16.840.1.113883.6.238","code":"2135-2","display":"Hispanic or Latino","userSelected":true}},{"url":"text","valueString":"Hispanic or Latino"}]}],"identifier":[{"type":{"coding":[{"system":"http://terminology.hl7.org/CodeSystem/v2-0203","code":"MR"}]},"system":"https://bonnie-fhir.healthit.gov/","value":"633b3f9f0968f80122503cdd"}],"active":true,"name":[{"use":"usual","family":"DENOMPass","given":["LastAssPrfEGARelvTm_24Hr00Min00Sec_B4LastTmDELRsltDtTime"]}],"gender":"female","birthDate":"2004-02-01"},"request":{"method":"PUT","url":"Patient/c273296a-5429-4c99-adc7-55a65a944362"}},{"fullUrl":"https://madie.cms.gov/Observation/85359482-ce91-4a28-9b05-b67a5ad6942e","resource":{"resourceType":"Observation","id":"85359482-ce91-4a28-9b05-b67a5ad6942e","meta":{"profile":["http://hl7.org/fhir/us/qicore/StructureDefinition/qicore-observation"]},"status":"final","category":[{"coding":[{"system":"http://terminology.hl7.org/CodeSystem/observation-category","code":"exam","display":"exam","userSelected":true}]}],"code":{"coding":[{"system":"http://loinc.org","code":"93857-1"}]},"subject":{"reference":"Patient/c273296a-5429-4c99-adc7-55a65a944362"},"effectiveDateTime":"2024-02-01T08:00:00.000+00:00","valueDateTime":"2024-02-01T08:00:00+00:00"},"request":{"method":"PUT","url":"Observation/85359482-ce91-4a28-9b05-b67a5ad6942e"}},{"fullUrl":"https://madie.cms.gov/Observation/0361be3e-5643-40ac-91c9-83790774bf65","resource":{"resourceType":"Observation","id":"0361be3e-5643-40ac-91c9-83790774bf65","meta":{"profile":["http://hl7.org/fhir/us/qicore/StructureDefinition/qicore-observation"]},"status":"final","category":[{"coding":[{"system":"http://terminology.hl7.org/CodeSystem/observation-category","code":"exam","display":"exam","userSelected":true}]}],"code":{"coding":[{"system":"http://loinc.org","code":"11884-4"}]},"subject":{"reference":"Patient/c273296a-5429-4c99-adc7-55a65a944362"},"effectiveDateTime":"2024-01-31T08:00:00.000+00:00","valueQuantity":{"value":20,"unit":"wk"}},"request":{"method":"PUT","url":"Observation/0361be3e-5643-40ac-91c9-83790774bf65"}},{"fullUrl":"https://madie.cms.gov/Encounter/73c8571b-9237-4a4f-9c12-bdd87d79d00f","resource":{"resourceType":"Encounter","id":"73c8571b-9237-4a4f-9c12-bdd87d79d00f","meta":{"profile":["http://hl7.org/fhir/us/qicore/StructureDefinition/qicore-encounter"]},"status":"finished","class":{"system":"http://terminology.hl7.org/CodeSystem/v3-ActCode","code":"IMP","display":"inpatient encounter"},"type":[{"coding":[{"system":"http://snomed.info/sct","code":"183452005"}]}],"subject":{"reference":"Patient/c273296a-5429-4c99-adc7-55a65a944362"},"period":{"start":"2024-02-01T08:00:00.000Z","end":"2024-02-05T08:15:00.000Z"}},"request":{"method":"PUT","url":"Encounter/73c8571b-9237-4a4f-9c12-bdd87d79d00f"}},{"fullUrl":"https://madie.cms.gov/Procedure/573a034b-9579-4429-a90a-1bc26ba17d40","resource":{"resourceType":"Procedure","id":"573a034b-9579-4429-a90a-1bc26ba17d40","meta":{"profile":["http://hl7.org/fhir/us/qicore/StructureDefinition/qicore-procedure"]},"extension":[{"url":"http://hl7.org/fhir/us/qicore/StructureDefinition/qicore-recorded","valueDateTime":"2013-04-05T09:35:00-04:00"}],"status":"completed","code":{"coding":[{"system":"http://snomed.info/sct","code":"10745001"}]},"subject":{"reference":"Patient/c273296a-5429-4c99-adc7-55a65a944362"},"performedPeriod":{"start":"2024-02-01T08:00:00.000Z","end":"2024-02-05T08:15:00.000Z"}},"request":{"method":"PUT","url":"Procedure/573a034b-9579-4429-a90a-1bc26ba17d40"}},{"fullUrl":"https://madie.cms.gov/Coverage/85c01d7c-1dd3-4f2b-a32b-62f96b86a3dc","resource":{"resourceType":"Coverage","id":"85c01d7c-1dd3-4f2b-a32b-62f96b86a3dc","meta":{"profile":["http://hl7.org/fhir/us/qicore/StructureDefinition/qicore-coverage"]},"status":"active","beneficiary":{"reference":"Patient/c273296a-5429-4c99-adc7-55a65a944362"},"payor":[{"reference":"Organization/f82f074c-de39-42ec-933c-8310b905d708"}]},"request":{"method":"PUT","url":"Coverage/85c01d7c-1dd3-4f2b-a32b-62f96b86a3dc"}},{"fullUrl":"https://madie.cms.gov/Organization/f82f074c-de39-42ec-933c-8310b905d708","resource":{"resourceType":"Organization","id":"f82f074c-de39-42ec-933c-8310b905d708","meta":{"profile":["http://hl7.org/fhir/us/qicore/StructureDefinition/qicore-organization"]},"identifier":[{"use":"temp","system":"urn:oid:2.16.840.1.113883.4.4","value":"21-3259825"}],"active":true,"type":[{"coding":[{"system":"http://terminology.hl7.org/CodeSystem/organization-type","code":"pay","display":"Payer"}]}],"name":"Blue Cross Blue Shield of Texas","telecom":[{"system":"phone","value":"(+1) 972-766-6900"}],"address":[{"use":"billing","type":"postal","line":["P.O. Box 660044"],"city":"Dallas","state":"TX","postalCode":"75266-0044","country":"USA"}]},"request":{"method":"PUT","url":"Organization/f82f074c-de39-42ec-933c-8310b905d708"}},{"fullUrl":"https://madie.cms.gov/Practitioner/dcc2f0cb-b5b9-451c-bcf5-0100de09ae5d","resource":{"resourceType":"Practitioner","id":"dcc2f0cb-b5b9-451c-bcf5-0100de09ae5d","identifier":[{"system":"http://hl7.org/fhir/sid/us-npi","value":"123456"}],"name":[{"family":"Evil","prefix":["Dr"]}]},"request":{"method":"PUT","url":"Practitioner/dcc2f0cb-b5b9-451c-bcf5-0100de09ae5d"}},{"fullUrl":"https://madie.cms.gov/MeasureReport/ddf12cc1-c3e5-4e23-a388-f9ef7963c0a8","resource":{"resourceType":"MeasureReport","id":"ddf12cc1-c3e5-4e23-a388-f9ef7963c0a8","meta":{"profile":["http://hl7.org/fhir/us/cqfmeasures/StructureDefinition/test-case-cqfm"]},"contained":[{"resourceType":"Parameters","id":"77995119-fdbb-43c9-a65b-552e2a7fd89d-parameters","parameter":[{"name":"subject","valueString":"c273296a-5429-4c99-adc7-55a65a944362"}]}],"extension":[{"url":"http://hl7.org/fhir/us/cqfmeasures/StructureDefinition/cqfm-inputParameters","valueReference":{"reference":"#77995119-fdbb-43c9-a65b-552e2a7fd89d-parameters"}},{"url":"http://hl7.org/fhir/us/cqfmeasures/StructureDefinition/cqfm-testCaseDescription","valueMarkdown":"Estimated Gestational Age Relevant Date Time is 24 hours before Time of Delivery (result)\n"}],"modifierExtension":[{"url":"http://hl7.org/fhir/us/cqfmeasures/StructureDefinition/cqfm-isTestCase","valueBoolean":true}],"status":"complete","type":"individual","measure":"https://madie.cms.gov/Measure/SevereObstetricComplicationsFHIR","period":{"start":"2024-01-01","end":"2024-12-31"},"group":[{"population":[{"code":{"coding":[{"system":"http://terminology.hl7.org/CodeSystem/measure-population","code":"initial-population","display":"Initial Population"}]},"count":1},{"code":{"coding":[{"system":"http://terminology.hl7.org/CodeSystem/measure-population","code":"denominator","display":"Denominator"}]},"count":1},{"code":{"coding":[{"system":"http://terminology.hl7.org/CodeSystem/measure-population","code":"denominator-exclusion","display":"Denominator Exclusion"}]},"count":0},{"code":{"coding":[{"system":"http://terminology.hl7.org/CodeSystem/measure-population","code":"numerator","display":"Numerator"}]},"count":0}]}],"evaluatedResource":[{"reference":"Patient/c273296a-5429-4c99-adc7-55a65a944362"},{"reference":"Observation/85359482-ce91-4a28-9b05-b67a5ad6942e"},{"reference":"Observation/0361be3e-5643-40ac-91c9-83790774bf65"},{"reference":"Encounter/73c8571b-9237-4a4f-9c12-bdd87d79d00f"},{"reference":"Procedure/573a034b-9579-4429-a90a-1bc26ba17d40"},{"reference":"Coverage/85c01d7c-1dd3-4f2b-a32b-62f96b86a3dc"},{"reference":"Organization/f82f074c-de39-42ec-933c-8310b905d708"},{"reference":"Practitioner/dcc2f0cb-b5b9-451c-bcf5-0100de09ae5d"}]},"request":{"method":"PUT","url":"MeasureReport/ddf12cc1-c3e5-4e23-a388-f9ef7963c0a8"}}]}