{"resourceType":"Bundle","id":"tests-2186e400-a758-4935-b08d-ca3ee723d42e-bundle","type":"transaction","entry":[{"fullUrl":"https://madie.cms.gov/Patient/2186e400-a758-4935-b08d-ca3ee723d42e","resource":{"resourceType":"Patient","id":"2186e400-a758-4935-b08d-ca3ee723d42e","meta":{"profile":["http://hl7.org/fhir/us/qicore/StructureDefinition/qicore-patient"]},"text":{"status":"generated","div":"<div xmlns=\"http://www.w3.org/1999/xhtml\"><div class=\"hapiHeaderText\">AssPrfDELRelvDt_EQIPStart <b>DENOMPASS </b></div><table class=\"hapiPropertyTable\"><tbody><tr><td>Date of birth</td><td><span>01 February 2004</span></td></tr></tbody></table></div>"},"extension":[{"url":"http://hl7.org/fhir/us/core/StructureDefinition/us-core-race","extension":[{"url":"ombCategory","valueCoding":{"system":"urn:oid:2.16.840.1.113883.6.238","code":"1002-5","display":"American Indian or Alaska Native","userSelected":true}},{"url":"text","valueString":"American Indian or Alaska Native"}]},{"url":"http://hl7.org/fhir/us/core/StructureDefinition/us-core-ethnicity","extension":[{"url":"ombCategory","valueCoding":{"system":"urn:oid:2.16.840.1.113883.6.238","code":"2135-2","display":"Hispanic or Latino","userSelected":true}},{"url":"text","valueString":"Hispanic or Latino"}]}],"identifier":[{"type":{"coding":[{"system":"http://terminology.hl7.org/CodeSystem/v2-0203","code":"MR"}]},"system":"https://bonnie-fhir.healthit.gov/","value":"6356d4d054e383debade75a5"}],"active":true,"name":[{"use":"usual","family":"DENEXCFail","given":["CovidDxCovidProcedureStrts1201amDayAftEncEnds"]}],"gender":"female","birthDate":"2004-02-01"},"request":{"method":"PUT","url":"Patient/2186e400-a758-4935-b08d-ca3ee723d42e"}},{"fullUrl":"https://madie.cms.gov/Observation/065a9478-91e2-4089-9dd3-8435e5da7984","resource":{"resourceType":"Observation","id":"065a9478-91e2-4089-9dd3-8435e5da7984","meta":{"profile":["http://hl7.org/fhir/us/qicore/StructureDefinition/qicore-observation"]},"status":"final","category":[{"coding":[{"system":"http://terminology.hl7.org/CodeSystem/observation-category","code":"exam","display":"exam","userSelected":true}]}],"code":{"coding":[{"system":"http://loinc.org","code":"93857-1"}]},"subject":{"reference":"Patient/2186e400-a758-4935-b08d-ca3ee723d42e"},"effectiveDateTime":"2024-02-01T08:00:00.000+00:00","valueDateTime":"2024-02-01T08:00:00.000+00:00"},"request":{"method":"PUT","url":"Observation/065a9478-91e2-4089-9dd3-8435e5da7984"}},{"fullUrl":"https://madie.cms.gov/Observation/8b91f2ac-caca-4aa9-ab12-ba7ca8331f82","resource":{"resourceType":"Observation","id":"8b91f2ac-caca-4aa9-ab12-ba7ca8331f82","meta":{"profile":["http://hl7.org/fhir/us/qicore/StructureDefinition/qicore-observation"]},"status":"final","category":[{"coding":[{"system":"http://terminology.hl7.org/CodeSystem/observation-category","code":"exam","display":"exam","userSelected":true}]}],"code":{"coding":[{"system":"http://loinc.org","code":"11778-8"}]},"subject":{"reference":"Patient/2186e400-a758-4935-b08d-ca3ee723d42e"},"effectiveDateTime":"2024-02-01T08:00:00.000+00:00","valueDateTime":"2024-02-01T08:00:00.000+00:00"},"request":{"method":"PUT","url":"Observation/8b91f2ac-caca-4aa9-ab12-ba7ca8331f82"}},{"fullUrl":"https://madie.cms.gov/Encounter/358b2b37-5a77-420b-b29c-e2643624b04f","resource":{"resourceType":"Encounter","id":"358b2b37-5a77-420b-b29c-e2643624b04f","meta":{"profile":["http://hl7.org/fhir/us/qicore/StructureDefinition/qicore-encounter"]},"status":"finished","class":{"system":"http://terminology.hl7.org/CodeSystem/v3-ActCode","code":"IMP","display":"inpatient encounter"},"type":[{"coding":[{"system":"http://snomed.info/sct","code":"183452005"}]}],"subject":{"reference":"Patient/2186e400-a758-4935-b08d-ca3ee723d42e"},"period":{"start":"2024-02-01T08:00:00.000Z","end":"2024-02-05T08:15:00.000Z"},"diagnosis":[{"condition":{"reference":"Condition/811a87f6-c851-4196-a1b2-df48ec1a9eaa"}}]},"request":{"method":"PUT","url":"Encounter/358b2b37-5a77-420b-b29c-e2643624b04f"}},{"fullUrl":"https://madie.cms.gov/Procedure/04c04d58-ca70-465e-9397-8bb1452af68c","resource":{"resourceType":"Procedure","id":"04c04d58-ca70-465e-9397-8bb1452af68c","meta":{"profile":["http://hl7.org/fhir/us/qicore/StructureDefinition/qicore-procedure"]},"extension":[{"url":"http://hl7.org/fhir/us/qicore/StructureDefinition/qicore-recorded","valueDateTime":"2013-04-05T09:35:00-04:00"}],"status":"completed","code":{"coding":[{"system":"http://snomed.info/sct","code":"10745001"}]},"subject":{"reference":"Patient/2186e400-a758-4935-b08d-ca3ee723d42e"},"performedPeriod":{"start":"2024-02-01T08:00:00.000Z","end":"2024-02-05T08:15:00.000Z"}},"request":{"method":"PUT","url":"Procedure/04c04d58-ca70-465e-9397-8bb1452af68c"}},{"fullUrl":"https://madie.cms.gov/Condition/811a87f6-c851-4196-a1b2-df48ec1a9eaa","resource":{"resourceType":"Condition","id":"811a87f6-c851-4196-a1b2-df48ec1a9eaa","meta":{"profile":["http://hl7.org/fhir/us/qicore/StructureDefinition/qicore-condition"]},"category":[{"coding":[{"system":"http://terminology.hl7.org/CodeSystem/condition-category","code":"encounter-diagnosis","display":"Encounter Diagnosis"}]}],"code":{"coding":[{"system":"http://snomed.info/sct","version":"2022-09","code":"840539006","display":"Disease caused by severe acute respiratory syndrome coronavirus 2 (disorder)","userSelected":true}]},"subject":{"reference":"Patient/2186e400-a758-4935-b08d-ca3ee723d42e"}},"request":{"method":"PUT","url":"Condition/811a87f6-c851-4196-a1b2-df48ec1a9eaa"}},{"fullUrl":"https://madie.cms.gov/Procedure/cf049147-083e-44c3-bf85-2692c0fff9c1","resource":{"resourceType":"Procedure","id":"cf049147-083e-44c3-bf85-2692c0fff9c1","meta":{"profile":["http://hl7.org/fhir/us/qicore/StructureDefinition/qicore-procedure"]},"extension":[{"url":"http://hl7.org/fhir/us/qicore/StructureDefinition/qicore-recorded","valueDateTime":"2013-04-05T09:35:00-04:00"}],"status":"completed","code":{"coding":[{"system":"http://snomed.info/sct","version":"2022-09","code":"233573008","display":"Extracorporeal membrane oxygenation (procedure)","userSelected":true}]},"subject":{"reference":"Patient/2186e400-a758-4935-b08d-ca3ee723d42e"},"performedDateTime":"2024-02-06T00:01:00.000+00:00"},"request":{"method":"PUT","url":"Procedure/cf049147-083e-44c3-bf85-2692c0fff9c1"}},{"fullUrl":"https://madie.cms.gov/Coverage/155d0456-0509-4ad8-940c-336afca514f8","resource":{"resourceType":"Coverage","id":"155d0456-0509-4ad8-940c-336afca514f8","status":"active","type":{"coding":[{"system":"http://www.nlm.nih.gov/research/umls/sop","version":"9.2","code":"1","display":"MEDICARE","userSelected":true}]},"beneficiary":{"reference":"Patient/2186e400-a758-4935-b08d-ca3ee723d42e"},"payor":[{"reference":"Organization/32ae3730-c2b7-4479-a1e2-bde09eba0c7a"}]},"request":{"method":"PUT","url":"Coverage/155d0456-0509-4ad8-940c-336afca514f8"}},{"fullUrl":"https://madie.cms.gov/Organization/32ae3730-c2b7-4479-a1e2-bde09eba0c7a","resource":{"resourceType":"Organization","id":"32ae3730-c2b7-4479-a1e2-bde09eba0c7a","meta":{"profile":["http://hl7.org/fhir/us/qicore/StructureDefinition/qicore-organization"]},"identifier":[{"use":"temp","system":"urn:oid:2.16.840.1.113883.4.4","value":"21-3259825"}],"active":true,"type":[{"coding":[{"system":"http://terminology.hl7.org/CodeSystem/organization-type","code":"pay","display":"Payer"}]}],"name":"Blue Cross Blue Shield of Texas","telecom":[{"system":"phone","value":"(+1) 972-766-6900"}],"address":[{"use":"billing","type":"postal","line":["P.O. Box 660044"],"city":"Dallas","state":"TX","postalCode":"75266-0044","country":"USA"}]},"request":{"method":"PUT","url":"Organization/32ae3730-c2b7-4479-a1e2-bde09eba0c7a"}},{"fullUrl":"https://madie.cms.gov/Practitioner/9a8c2517-ddea-407e-aced-abc37508a5b2","resource":{"resourceType":"Practitioner","id":"9a8c2517-ddea-407e-aced-abc37508a5b2","identifier":[{"system":"http://hl7.org/fhir/sid/us-npi","value":"123456"}],"name":[{"family":"Evil","prefix":["Dr"]}]},"request":{"method":"PUT","url":"Practitioner/9a8c2517-ddea-407e-aced-abc37508a5b2"}},{"fullUrl":"https://madie.cms.gov/MeasureReport/e83c277a-a867-45de-bead-866681a383fa","resource":{"resourceType":"MeasureReport","id":"e83c277a-a867-45de-bead-866681a383fa","meta":{"profile":["http://hl7.org/fhir/us/cqfmeasures/StructureDefinition/test-case-cqfm"]},"contained":[{"resourceType":"Parameters","id":"8e4816e5-214c-40c2-b9d9-b60fda9d58a1-parameters","parameter":[{"name":"subject","valueString":"2186e400-a758-4935-b08d-ca3ee723d42e"}]}],"extension":[{"url":"http://hl7.org/fhir/us/cqfmeasures/StructureDefinition/cqfm-inputParameters","valueReference":{"reference":"#8e4816e5-214c-40c2-b9d9-b60fda9d58a1-parameters"}},{"url":"http://hl7.org/fhir/us/cqfmeasures/StructureDefinition/cqfm-testCaseDescription","valueMarkdown":"Patient with confirmed COVID diagnosis and COVID related procedure which starts 12:01 am day after encounter ends\n"}],"modifierExtension":[{"url":"http://hl7.org/fhir/us/cqfmeasures/StructureDefinition/cqfm-isTestCase","valueBoolean":true}],"status":"complete","type":"individual","measure":"https://madie.cms.gov/Measure/SevereObstetricComplicationsFHIR","period":{"start":"2024-01-01","end":"2024-12-31"},"group":[{"population":[{"code":{"coding":[{"system":"http://terminology.hl7.org/CodeSystem/measure-population","code":"initial-population","display":"Initial Population"}]},"count":1},{"code":{"coding":[{"system":"http://terminology.hl7.org/CodeSystem/measure-population","code":"denominator","display":"Denominator"}]},"count":1},{"code":{"coding":[{"system":"http://terminology.hl7.org/CodeSystem/measure-population","code":"denominator-exclusion","display":"Denominator Exclusion"}]},"count":0},{"code":{"coding":[{"system":"http://terminology.hl7.org/CodeSystem/measure-population","code":"numerator","display":"Numerator"}]},"count":0}]}],"evaluatedResource":[{"reference":"Patient/2186e400-a758-4935-b08d-ca3ee723d42e"},{"reference":"Observation/065a9478-91e2-4089-9dd3-8435e5da7984"},{"reference":"Observation/8b91f2ac-caca-4aa9-ab12-ba7ca8331f82"},{"reference":"Encounter/358b2b37-5a77-420b-b29c-e2643624b04f"},{"reference":"Procedure/04c04d58-ca70-465e-9397-8bb1452af68c"},{"reference":"Condition/811a87f6-c851-4196-a1b2-df48ec1a9eaa"},{"reference":"Procedure/cf049147-083e-44c3-bf85-2692c0fff9c1"},{"reference":"Coverage/155d0456-0509-4ad8-940c-336afca514f8"},{"reference":"Organization/32ae3730-c2b7-4479-a1e2-bde09eba0c7a"},{"reference":"Practitioner/9a8c2517-ddea-407e-aced-abc37508a5b2"}]},"request":{"method":"PUT","url":"MeasureReport/e83c277a-a867-45de-bead-866681a383fa"}}]}