{"resourceType":"Bundle","id":"tests-db796326-d074-4733-ac4c-d688c28c19a2-bundle","type":"transaction","entry":[{"fullUrl":"https://madie.cms.gov/Patient/db796326-d074-4733-ac4c-d688c28c19a2","resource":{"resourceType":"Patient","id":"db796326-d074-4733-ac4c-d688c28c19a2","meta":{"profile":["http://hl7.org/fhir/us/qicore/StructureDefinition/qicore-patient"]},"text":{"status":"generated","div":"<div xmlns=\"http://www.w3.org/1999/xhtml\"><div class=\"hapiHeaderText\">Test1EDDMinutesImpactOnWksGest <b>DENOMPASS </b></div><table class=\"hapiPropertyTable\"><tbody><tr><td>Date of birth</td><td><span>01 February 1958</span></td></tr></tbody></table></div>"},"extension":[{"url":"http://hl7.org/fhir/us/core/StructureDefinition/us-core-race","extension":[{"url":"ombCategory","valueCoding":{"system":"urn:oid:2.16.840.1.113883.6.238","code":"1002-5","display":"American Indian or Alaska Native","userSelected":true}},{"url":"text","valueString":"American Indian or Alaska Native"}]},{"url":"http://hl7.org/fhir/us/core/StructureDefinition/us-core-ethnicity","extension":[{"url":"ombCategory","valueCoding":{"system":"urn:oid:2.16.840.1.113883.6.238","code":"2135-2","display":"Hispanic or Latino","userSelected":true}},{"url":"text","valueString":"Hispanic or Latino"}]}],"identifier":[{"type":{"coding":[{"system":"http://terminology.hl7.org/CodeSystem/v2-0203","code":"MR"}]},"system":"https://bonnie-fhir.healthit.gov/","value":"633b3f9e0968f80122503cd8"}],"active":true,"name":[{"use":"usual","family":"DENOMPass","given":["Test1EDDMinutesImpactOnWksGest"]}],"gender":"female","birthDate":"1970-02-01"},"request":{"method":"PUT","url":"Patient/db796326-d074-4733-ac4c-d688c28c19a2"}},{"fullUrl":"https://madie.cms.gov/Observation/d5b3aa93-97db-4974-8c96-c7c012c0081d","resource":{"resourceType":"Observation","id":"d5b3aa93-97db-4974-8c96-c7c012c0081d","meta":{"profile":["http://hl7.org/fhir/us/qicore/StructureDefinition/qicore-observation"]},"status":"final","category":[{"coding":[{"system":"http://terminology.hl7.org/CodeSystem/observation-category","code":"exam","display":"exam","userSelected":true}]}],"code":{"coding":[{"system":"http://loinc.org","code":"93857-1"}]},"subject":{"reference":"Patient/db796326-d074-4733-ac4c-d688c28c19a2"},"effectiveDateTime":"2024-02-01T08:00:00.000+00:00","valueDateTime":"2024-02-01T08:00:00+00:00"},"request":{"method":"PUT","url":"Observation/d5b3aa93-97db-4974-8c96-c7c012c0081d"}},{"fullUrl":"https://madie.cms.gov/Observation/ffca9e38-33cb-417e-9fbc-20f710dc2af2","resource":{"resourceType":"Observation","id":"ffca9e38-33cb-417e-9fbc-20f710dc2af2","meta":{"profile":["http://hl7.org/fhir/us/qicore/StructureDefinition/qicore-observation"]},"status":"final","category":[{"coding":[{"system":"http://terminology.hl7.org/CodeSystem/observation-category","code":"exam","display":"exam","userSelected":true}]}],"code":{"coding":[{"system":"http://loinc.org","code":"11778-8"}]},"subject":{"reference":"Patient/db796326-d074-4733-ac4c-d688c28c19a2"},"effectiveDateTime":"2023-04-13T08:01:00.000+00:00","valueDateTime":"2024-02-01T08:00:00.000+00:00"},"request":{"method":"PUT","url":"Observation/ffca9e38-33cb-417e-9fbc-20f710dc2af2"}},{"fullUrl":"https://madie.cms.gov/Encounter/e8d31238-ede3-47e5-bacf-2f979ef1e2df","resource":{"resourceType":"Encounter","id":"e8d31238-ede3-47e5-bacf-2f979ef1e2df","meta":{"profile":["http://hl7.org/fhir/us/qicore/StructureDefinition/qicore-encounter"]},"status":"finished","class":{"system":"http://terminology.hl7.org/CodeSystem/v3-ActCode","code":"IMP","display":"inpatient encounter"},"type":[{"coding":[{"system":"http://snomed.info/sct","code":"183452005"}]}],"subject":{"reference":"Patient/db796326-d074-4733-ac4c-d688c28c19a2"},"period":{"start":"2024-01-30T08:00:00.000Z","end":"2024-02-05T08:15:00.000Z"}},"request":{"method":"PUT","url":"Encounter/e8d31238-ede3-47e5-bacf-2f979ef1e2df"}},{"fullUrl":"https://madie.cms.gov/Procedure/1a91df77-ad79-4024-aa95-cf12b3037500","resource":{"resourceType":"Procedure","id":"1a91df77-ad79-4024-aa95-cf12b3037500","meta":{"profile":["http://hl7.org/fhir/us/qicore/StructureDefinition/qicore-procedure"]},"extension":[{"url":"http://hl7.org/fhir/us/qicore/StructureDefinition/qicore-recorded","valueDateTime":"2013-04-05T09:35:00-04:00"}],"status":"completed","code":{"coding":[{"system":"http://snomed.info/sct","code":"10745001"}]},"subject":{"reference":"Patient/db796326-d074-4733-ac4c-d688c28c19a2"},"performedPeriod":{"start":"2024-02-01T08:00:00.000Z"}},"request":{"method":"PUT","url":"Procedure/1a91df77-ad79-4024-aa95-cf12b3037500"}},{"fullUrl":"https://madie.cms.gov/Coverage/f6b198a2-c0ec-422c-8469-f38fe8e54d99","resource":{"resourceType":"Coverage","id":"f6b198a2-c0ec-422c-8469-f38fe8e54d99","meta":{"profile":["http://hl7.org/fhir/us/qicore/StructureDefinition/qicore-coverage"]},"status":"active","beneficiary":{"reference":"Patient/db796326-d074-4733-ac4c-d688c28c19a2"},"payor":[{"reference":"Organization/09669485-02a2-4676-ac5c-b5143c22f59f"}]},"request":{"method":"PUT","url":"Coverage/f6b198a2-c0ec-422c-8469-f38fe8e54d99"}},{"fullUrl":"https://madie.cms.gov/Organization/09669485-02a2-4676-ac5c-b5143c22f59f","resource":{"resourceType":"Organization","id":"09669485-02a2-4676-ac5c-b5143c22f59f","meta":{"profile":["http://hl7.org/fhir/us/qicore/StructureDefinition/qicore-organization"]},"identifier":[{"use":"temp","system":"urn:oid:2.16.840.1.113883.4.4","value":"21-3259825"}],"active":true,"type":[{"coding":[{"system":"http://terminology.hl7.org/CodeSystem/organization-type","code":"pay","display":"Payer"}]}],"name":"Blue Cross Blue Shield of Texas","telecom":[{"system":"phone","value":"(+1) 972-766-6900"}],"address":[{"use":"billing","type":"postal","line":["P.O. Box 660044"],"city":"Dallas","state":"TX","postalCode":"75266-0044","country":"USA"}]},"request":{"method":"PUT","url":"Organization/09669485-02a2-4676-ac5c-b5143c22f59f"}},{"fullUrl":"https://madie.cms.gov/Practitioner/7809f826-f4bc-477e-a885-54f427f4ddfc","resource":{"resourceType":"Practitioner","id":"7809f826-f4bc-477e-a885-54f427f4ddfc","identifier":[{"system":"http://hl7.org/fhir/sid/us-npi","value":"123456"}],"name":[{"family":"Evil","prefix":["Dr"]}]},"request":{"method":"PUT","url":"Practitioner/7809f826-f4bc-477e-a885-54f427f4ddfc"}},{"fullUrl":"https://madie.cms.gov/MeasureReport/ef06eb00-0af5-4282-8e61-84c3f7bf6371","resource":{"resourceType":"MeasureReport","id":"ef06eb00-0af5-4282-8e61-84c3f7bf6371","meta":{"profile":["http://hl7.org/fhir/us/cqfmeasures/StructureDefinition/test-case-cqfm"]},"contained":[{"resourceType":"Parameters","id":"c91adbdc-b85e-4efa-8649-156d53d44fbf-parameters","parameter":[{"name":"subject","valueString":"db796326-d074-4733-ac4c-d688c28c19a2"}]}],"extension":[{"url":"http://hl7.org/fhir/us/cqfmeasures/StructureDefinition/cqfm-inputParameters","valueReference":{"reference":"#c91adbdc-b85e-4efa-8649-156d53d44fbf-parameters"}},{"url":"http://hl7.org/fhir/us/cqfmeasures/StructureDefinition/cqfm-testCaseDescription","valueMarkdown":"\"Delivery date = 2/1/2012 @0800.  EDD = 2/1/2012\n @0800.  Weeks gestation = 40.\"  To test the impact on calculated weeks gestation, I temporarily changes the logic of this definition:  \"Del Enc with CGA Greater than or Equal to 20 Weeks\" to = 40.\n\n"}],"modifierExtension":[{"url":"http://hl7.org/fhir/us/cqfmeasures/StructureDefinition/cqfm-isTestCase","valueBoolean":true}],"status":"complete","type":"individual","measure":"https://madie.cms.gov/Measure/SevereObstetricComplicationsFHIR","period":{"start":"2024-01-01","end":"2024-12-31"},"group":[{"population":[{"code":{"coding":[{"system":"http://terminology.hl7.org/CodeSystem/measure-population","code":"initial-population","display":"Initial Population"}]},"count":1},{"code":{"coding":[{"system":"http://terminology.hl7.org/CodeSystem/measure-population","code":"denominator","display":"Denominator"}]},"count":1},{"code":{"coding":[{"system":"http://terminology.hl7.org/CodeSystem/measure-population","code":"denominator-exclusion","display":"Denominator Exclusion"}]},"count":0},{"code":{"coding":[{"system":"http://terminology.hl7.org/CodeSystem/measure-population","code":"numerator","display":"Numerator"}]},"count":0}]}],"evaluatedResource":[{"reference":"Patient/db796326-d074-4733-ac4c-d688c28c19a2"},{"reference":"Observation/d5b3aa93-97db-4974-8c96-c7c012c0081d"},{"reference":"Observation/ffca9e38-33cb-417e-9fbc-20f710dc2af2"},{"reference":"Encounter/e8d31238-ede3-47e5-bacf-2f979ef1e2df"},{"reference":"Procedure/1a91df77-ad79-4024-aa95-cf12b3037500"},{"reference":"Coverage/f6b198a2-c0ec-422c-8469-f38fe8e54d99"},{"reference":"Organization/09669485-02a2-4676-ac5c-b5143c22f59f"},{"reference":"Practitioner/7809f826-f4bc-477e-a885-54f427f4ddfc"}]},"request":{"method":"PUT","url":"MeasureReport/ef06eb00-0af5-4282-8e61-84c3f7bf6371"}}]}