{"resourceType":"Bundle","id":"tests-eda947a3-bcdd-4909-ab8d-b4e3be8505ff-bundle","type":"transaction","entry":[{"fullUrl":"https://madie.cms.gov/Patient/eda947a3-bcdd-4909-ab8d-b4e3be8505ff","resource":{"resourceType":"Patient","id":"eda947a3-bcdd-4909-ab8d-b4e3be8505ff","meta":{"profile":["http://hl7.org/fhir/us/qicore/StructureDefinition/qicore-patient"]},"text":{"status":"generated","div":"<div xmlns=\"http://www.w3.org/1999/xhtml\"><div class=\"hapiHeaderText\">RISKHRRelDtTimeEQDelStartless1Min <b>RISKPass </b></div><table class=\"hapiPropertyTable\"><tbody><tr><td>Date of birth</td><td><span>01 February 2004</span></td></tr></tbody></table></div>"},"extension":[{"url":"http://hl7.org/fhir/us/core/StructureDefinition/us-core-race","extension":[{"url":"ombCategory","valueCoding":{"system":"urn:oid:2.16.840.1.113883.6.238","code":"1002-5","display":"American Indian or Alaska Native","userSelected":true}},{"url":"text","valueString":"American Indian or Alaska Native"}]},{"url":"http://hl7.org/fhir/us/core/StructureDefinition/us-core-ethnicity","extension":[{"url":"ombCategory","valueCoding":{"system":"urn:oid:2.16.840.1.113883.6.238","code":"2135-2","display":"Hispanic or Latino","userSelected":true}},{"url":"text","valueString":"Hispanic or Latino"}]}],"identifier":[{"type":{"coding":[{"system":"http://terminology.hl7.org/CodeSystem/v2-0203","code":"MR"}]},"system":"https://bonnie-fhir.healthit.gov/","value":"63598dd9c35f1c19df09adbd"}],"active":true,"name":[{"use":"usual","family":"RiskPass","given":["RISKHRRelDtTimeEQDelStartless1Min"]}],"gender":"female","birthDate":"2004-02-01"},"request":{"method":"PUT","url":"Patient/eda947a3-bcdd-4909-ab8d-b4e3be8505ff"}},{"fullUrl":"https://madie.cms.gov/Observation/93347599-9b43-4d8c-8b37-5f57750cbeb9","resource":{"resourceType":"Observation","id":"93347599-9b43-4d8c-8b37-5f57750cbeb9","meta":{"profile":["http://hl7.org/fhir/us/qicore/StructureDefinition/qicore-observation"]},"status":"final","category":[{"coding":[{"system":"http://terminology.hl7.org/CodeSystem/observation-category","code":"exam","display":"exam","userSelected":true}]}],"code":{"coding":[{"system":"http://loinc.org","code":"93857-1"}]},"subject":{"reference":"Patient/eda947a3-bcdd-4909-ab8d-b4e3be8505ff"},"effectiveDateTime":"2024-02-01T08:00:00.000+00:00","valueDateTime":"2024-02-01T08:00:00+00:00"},"request":{"method":"PUT","url":"Observation/93347599-9b43-4d8c-8b37-5f57750cbeb9"}},{"fullUrl":"https://madie.cms.gov/Observation/e4f2e29c-490d-4b8b-99ee-9f260aec6285","resource":{"resourceType":"Observation","id":"e4f2e29c-490d-4b8b-99ee-9f260aec6285","meta":{"profile":["http://hl7.org/fhir/us/qicore/StructureDefinition/qicore-observation"]},"status":"final","category":[{"coding":[{"system":"http://terminology.hl7.org/CodeSystem/observation-category","code":"exam","display":"exam","userSelected":true}]}],"code":{"coding":[{"system":"http://loinc.org","code":"11884-4"}]},"subject":{"reference":"Patient/eda947a3-bcdd-4909-ab8d-b4e3be8505ff"},"effectiveDateTime":"2024-02-01T08:00:00.000+00:00","valueQuantity":{"value":21,"system":"http://unitsofmeasure.org","code":"wk"}},"request":{"method":"PUT","url":"Observation/e4f2e29c-490d-4b8b-99ee-9f260aec6285"}},{"fullUrl":"https://madie.cms.gov/Encounter/d2495cd8-a1a9-44e3-9e38-fb9ca454441c","resource":{"resourceType":"Encounter","id":"d2495cd8-a1a9-44e3-9e38-fb9ca454441c","meta":{"profile":["http://hl7.org/fhir/us/qicore/StructureDefinition/qicore-encounter"]},"status":"finished","class":{"system":"http://terminology.hl7.org/CodeSystem/v3-ActCode","code":"IMP","display":"inpatient encounter"},"type":[{"coding":[{"system":"http://snomed.info/sct","code":"183452005"}]}],"subject":{"reference":"Patient/eda947a3-bcdd-4909-ab8d-b4e3be8505ff"},"period":{"start":"2024-02-01T08:00:00.000+00:00","end":"2024-02-05T08:15:00.000+00:00"}},"request":{"method":"PUT","url":"Encounter/d2495cd8-a1a9-44e3-9e38-fb9ca454441c"}},{"fullUrl":"https://madie.cms.gov/Encounter/bf5d7ba4-3050-4dc4-b8d1-8d2a329338b2","resource":{"resourceType":"Encounter","id":"bf5d7ba4-3050-4dc4-b8d1-8d2a329338b2","meta":{"profile":["http://hl7.org/fhir/us/qicore/StructureDefinition/qicore-encounter"]},"status":"finished","class":{"system":"http://terminology.hl7.org/CodeSystem/v3-ActCode","code":"EMER","display":"emergency"},"type":[{"coding":[{"system":"http://snomed.info/sct","code":"4525004"}]}],"subject":{"reference":"Patient/eda947a3-bcdd-4909-ab8d-b4e3be8505ff"},"period":{"start":"2024-02-01T07:00:00.000+00:00","end":"2024-02-01T07:59:00.000+00:00"}},"request":{"method":"PUT","url":"Encounter/bf5d7ba4-3050-4dc4-b8d1-8d2a329338b2"}},{"fullUrl":"https://madie.cms.gov/Procedure/286e4f4f-9753-405f-ac27-b45c7335f95c","resource":{"resourceType":"Procedure","id":"286e4f4f-9753-405f-ac27-b45c7335f95c","meta":{"profile":["http://hl7.org/fhir/us/qicore/StructureDefinition/qicore-procedure"]},"extension":[{"url":"http://hl7.org/fhir/us/qicore/StructureDefinition/qicore-recorded","valueDateTime":"2024-02-04T09:35:00-04:00"}],"status":"completed","code":{"coding":[{"system":"http://snomed.info/sct","code":"10745001"}]},"subject":{"reference":"Patient/eda947a3-bcdd-4909-ab8d-b4e3be8505ff"},"performedPeriod":{"start":"2024-02-01T08:00:00.000+00:00","end":"2024-02-05T08:15:00.000+00:00"}},"request":{"method":"PUT","url":"Procedure/286e4f4f-9753-405f-ac27-b45c7335f95c"}},{"fullUrl":"https://madie.cms.gov/Observation/658d549d-b2f6-4f6a-918e-9ff9223aa082","resource":{"resourceType":"Observation","id":"658d549d-b2f6-4f6a-918e-9ff9223aa082","meta":{"profile":["http://hl7.org/fhir/StructureDefinition/heartrate"]},"status":"final","category":[{"coding":[{"system":"http://terminology.hl7.org/CodeSystem/observation-category","code":"vital-signs","display":"vital-signs","userSelected":true}]}],"code":{"coding":[{"system":"http://loinc.org","version":"2.73","code":"8867-4","display":"Heart Rate"}]},"subject":{"reference":"Patient/eda947a3-bcdd-4909-ab8d-b4e3be8505ff"},"effectiveDateTime":"2024-02-01T07:59:00.000+00:00","valueQuantity":{"value":85,"unit":"/min","system":"http://unitsofmeasure.org","code":"/min"}},"request":{"method":"PUT","url":"Observation/658d549d-b2f6-4f6a-918e-9ff9223aa082"}},{"fullUrl":"https://madie.cms.gov/MeasureReport/6f3027f1-54b1-4695-88a2-fc60e6eddd34","resource":{"resourceType":"MeasureReport","id":"6f3027f1-54b1-4695-88a2-fc60e6eddd34","meta":{"profile":["http://hl7.org/fhir/us/cqfmeasures/StructureDefinition/test-case-cqfm"]},"contained":[{"resourceType":"Parameters","id":"22856461-7659-48d7-acbf-f56cf8bfafc9-parameters","parameter":[{"name":"subject","valueString":"eda947a3-bcdd-4909-ab8d-b4e3be8505ff"}]}],"extension":[{"url":"http://hl7.org/fhir/us/cqfmeasures/StructureDefinition/cqfm-inputParameters","valueReference":{"reference":"#22856461-7659-48d7-acbf-f56cf8bfafc9-parameters"}},{"url":"http://hl7.org/fhir/us/cqfmeasures/StructureDefinition/cqfm-testCaseDescription","valueMarkdown":"Patient with heart rate relevant date/time = delivery date/time minus 1 minute\n"}],"modifierExtension":[{"url":"http://hl7.org/fhir/us/cqfmeasures/StructureDefinition/cqfm-isTestCase","valueBoolean":true}],"status":"complete","type":"individual","measure":"https://madie.cms.gov/Measure/SevereObstetricComplicationsFHIR","period":{"start":"2024-01-01","end":"2024-12-31"},"group":[{"population":[{"code":{"coding":[{"system":"http://terminology.hl7.org/CodeSystem/measure-population","code":"initial-population","display":"Initial Population"}]},"count":1},{"code":{"coding":[{"system":"http://terminology.hl7.org/CodeSystem/measure-population","code":"denominator","display":"Denominator"}]},"count":1},{"code":{"coding":[{"system":"http://terminology.hl7.org/CodeSystem/measure-population","code":"denominator-exclusion","display":"Denominator Exclusion"}]},"count":0},{"code":{"coding":[{"system":"http://terminology.hl7.org/CodeSystem/measure-population","code":"numerator","display":"Numerator"}]},"count":0}]}],"evaluatedResource":[{"reference":"Patient/eda947a3-bcdd-4909-ab8d-b4e3be8505ff"},{"reference":"Observation/93347599-9b43-4d8c-8b37-5f57750cbeb9"},{"reference":"Observation/e4f2e29c-490d-4b8b-99ee-9f260aec6285"},{"reference":"Encounter/d2495cd8-a1a9-44e3-9e38-fb9ca454441c"},{"reference":"Encounter/bf5d7ba4-3050-4dc4-b8d1-8d2a329338b2"},{"reference":"Procedure/286e4f4f-9753-405f-ac27-b45c7335f95c"},{"reference":"Observation/658d549d-b2f6-4f6a-918e-9ff9223aa082"}]},"request":{"method":"PUT","url":"MeasureReport/6f3027f1-54b1-4695-88a2-fc60e6eddd34"}}]}