{"resourceType":"Bundle","id":"tests-56cc4e8e-f5ba-4bd4-b69d-f7b446b3f47e-bundle","type":"transaction","entry":[{"fullUrl":"https://madie.cms.gov/Patient/56cc4e8e-f5ba-4bd4-b69d-f7b446b3f47e","resource":{"resourceType":"Patient","id":"56cc4e8e-f5ba-4bd4-b69d-f7b446b3f47e","meta":{"profile":["http://hl7.org/fhir/us/qicore/StructureDefinition/qicore-patient"]},"text":{"status":"generated","div":"<div xmlns=\"http://www.w3.org/1999/xhtml\"><div class=\"hapiHeaderText\">SMMEQSepsis <b>STRAT1Pass </b></div><table class=\"hapiPropertyTable\"><tbody><tr><td>Date of birth</td><td><span>01 February 2004</span></td></tr></tbody></table></div>"},"extension":[{"url":"http://hl7.org/fhir/us/core/StructureDefinition/us-core-race","extension":[{"url":"ombCategory","valueCoding":{"system":"urn:oid:2.16.840.1.113883.6.238","code":"1002-5","display":"American Indian or Alaska Native","userSelected":true}},{"url":"text","valueString":"American Indian or Alaska Native"}]},{"url":"http://hl7.org/fhir/us/core/StructureDefinition/us-core-ethnicity","extension":[{"url":"ombCategory","valueCoding":{"system":"urn:oid:2.16.840.1.113883.6.238","code":"2135-2","display":"Hispanic or Latino","userSelected":true}},{"url":"text","valueString":"Hispanic or Latino"}]}],"identifier":[{"type":{"coding":[{"system":"http://terminology.hl7.org/CodeSystem/v2-0203","code":"MR"}]},"system":"https://bonnie-fhir.healthit.gov/","value":"6356dca654e383debade75aa"}],"active":true,"name":[{"use":"usual","family":"STRAT1Pass","given":["SMMEQSepsis"]}],"gender":"female","birthDate":"2004-02-01"},"request":{"method":"PUT","url":"Patient/56cc4e8e-f5ba-4bd4-b69d-f7b446b3f47e"}},{"fullUrl":"https://madie.cms.gov/Observation/be9383e5-1659-42dc-a037-14aa74317499","resource":{"resourceType":"Observation","id":"be9383e5-1659-42dc-a037-14aa74317499","meta":{"profile":["http://hl7.org/fhir/us/qicore/StructureDefinition/qicore-observation"]},"status":"final","category":[{"coding":[{"system":"http://terminology.hl7.org/CodeSystem/observation-category","code":"exam","display":"exam","userSelected":true}]}],"code":{"coding":[{"system":"http://loinc.org","code":"93857-1"}]},"subject":{"reference":"Patient/56cc4e8e-f5ba-4bd4-b69d-f7b446b3f47e"},"effectiveDateTime":"2024-02-01T08:00:00.000+00:00","valueDateTime":"2024-02-01T08:00:00+00:00"},"request":{"method":"PUT","url":"Observation/be9383e5-1659-42dc-a037-14aa74317499"}},{"fullUrl":"https://madie.cms.gov/Observation/fb8d4d6d-64ca-4cdb-a83b-76375596ef3b","resource":{"resourceType":"Observation","id":"fb8d4d6d-64ca-4cdb-a83b-76375596ef3b","meta":{"profile":["http://hl7.org/fhir/us/qicore/StructureDefinition/qicore-observation"]},"status":"final","category":[{"coding":[{"system":"http://terminology.hl7.org/CodeSystem/observation-category","code":"exam","display":"exam","userSelected":true}]}],"code":{"coding":[{"system":"http://loinc.org","code":"11884-4"}]},"subject":{"reference":"Patient/56cc4e8e-f5ba-4bd4-b69d-f7b446b3f47e"},"effectiveDateTime":"2024-02-01T08:00:00.000+00:00","valueQuantity":{"value":21,"system":"http://unitsofmeasure.org","code":"wk"}},"request":{"method":"PUT","url":"Observation/fb8d4d6d-64ca-4cdb-a83b-76375596ef3b"}},{"fullUrl":"https://madie.cms.gov/Encounter/4da08030-fc46-498a-882a-73417ccb36b8","resource":{"resourceType":"Encounter","id":"4da08030-fc46-498a-882a-73417ccb36b8","meta":{"profile":["http://hl7.org/fhir/us/qicore/StructureDefinition/qicore-encounter"]},"status":"finished","class":{"system":"http://terminology.hl7.org/CodeSystem/v3-ActCode","code":"IMP","display":"inpatient encounter"},"type":[{"coding":[{"system":"http://snomed.info/sct","code":"183452005"}]}],"subject":{"reference":"Patient/56cc4e8e-f5ba-4bd4-b69d-f7b446b3f47e"},"period":{"start":"2024-02-01T08:00:00.000Z","end":"2024-02-05T08:15:00.000Z"},"diagnosis":[{"extension":[{"url":"http://hl7.org/fhir/us/qicore/StructureDefinition/qicore-encounter-diagnosisPresentOnAdmission","valueCodeableConcept":{"coding":[{"system":"https://www.cms.gov/Medicare/Medicare-Fee-for-Service-Payment/HospitalAcqCond/Coding","code":"N"}]}}],"condition":{"reference":"Condition/4590953e-ea37-4405-9205-6cbcb935fb61"}}]},"request":{"method":"PUT","url":"Encounter/4da08030-fc46-498a-882a-73417ccb36b8"}},{"fullUrl":"https://madie.cms.gov/Procedure/85d16f09-9cea-49f2-9057-26bd4c7bc9f7","resource":{"resourceType":"Procedure","id":"85d16f09-9cea-49f2-9057-26bd4c7bc9f7","meta":{"profile":["http://hl7.org/fhir/us/qicore/StructureDefinition/qicore-procedure"]},"extension":[{"url":"http://hl7.org/fhir/us/qicore/StructureDefinition/qicore-recorded","valueDateTime":"2013-04-05T09:35:00-04:00"}],"status":"completed","code":{"coding":[{"system":"http://snomed.info/sct","code":"10745001"}]},"subject":{"reference":"Patient/56cc4e8e-f5ba-4bd4-b69d-f7b446b3f47e"},"performedPeriod":{"start":"2024-02-01T08:00:00.000Z","end":"2024-02-05T08:15:00.000Z"}},"request":{"method":"PUT","url":"Procedure/85d16f09-9cea-49f2-9057-26bd4c7bc9f7"}},{"fullUrl":"https://madie.cms.gov/Condition/4590953e-ea37-4405-9205-6cbcb935fb61","resource":{"resourceType":"Condition","id":"4590953e-ea37-4405-9205-6cbcb935fb61","meta":{"profile":["http://hl7.org/fhir/us/qicore/StructureDefinition/qicore-condition"]},"category":[{"coding":[{"system":"http://terminology.hl7.org/CodeSystem/condition-category","code":"encounter-diagnosis","display":"Encounter Diagnosis"}]}],"code":{"coding":[{"system":"http://hl7.org/fhir/sid/icd-10-cm","version":"2023","code":"A32.7","display":"Listerial sepsis","userSelected":true}]},"subject":{"reference":"Patient/56cc4e8e-f5ba-4bd4-b69d-f7b446b3f47e"},"recordedDate":"2024-10-26T08:00:00.000+00:00"},"request":{"method":"PUT","url":"Condition/4590953e-ea37-4405-9205-6cbcb935fb61"}},{"fullUrl":"https://madie.cms.gov/Coverage/df9d7a8f-9fb7-4ddc-8047-caf5d21e8cc3","resource":{"resourceType":"Coverage","id":"df9d7a8f-9fb7-4ddc-8047-caf5d21e8cc3","meta":{"profile":["http://hl7.org/fhir/us/qicore/StructureDefinition/qicore-coverage"]},"status":"active","beneficiary":{"reference":"Patient/56cc4e8e-f5ba-4bd4-b69d-f7b446b3f47e"},"payor":[{"reference":"Organization/d2a6ca7e-b170-48f8-8357-359b9eaf4b7e"}]},"request":{"method":"PUT","url":"Coverage/df9d7a8f-9fb7-4ddc-8047-caf5d21e8cc3"}},{"fullUrl":"https://madie.cms.gov/Organization/d2a6ca7e-b170-48f8-8357-359b9eaf4b7e","resource":{"resourceType":"Organization","id":"d2a6ca7e-b170-48f8-8357-359b9eaf4b7e","meta":{"profile":["http://hl7.org/fhir/us/qicore/StructureDefinition/qicore-organization"]},"identifier":[{"use":"temp","system":"urn:oid:2.16.840.1.113883.4.4","value":"21-3259825"}],"active":true,"type":[{"coding":[{"system":"http://terminology.hl7.org/CodeSystem/organization-type","code":"pay","display":"Payer"}]}],"name":"Blue Cross Blue Shield of Texas","telecom":[{"system":"phone","value":"(+1) 972-766-6900"}],"address":[{"use":"billing","type":"postal","line":["P.O. Box 660044"],"city":"Dallas","state":"TX","postalCode":"75266-0044","country":"USA"}]},"request":{"method":"PUT","url":"Organization/d2a6ca7e-b170-48f8-8357-359b9eaf4b7e"}},{"fullUrl":"https://madie.cms.gov/Practitioner/419b52a1-9649-47e8-b0bc-eef432904185","resource":{"resourceType":"Practitioner","id":"419b52a1-9649-47e8-b0bc-eef432904185","identifier":[{"system":"http://hl7.org/fhir/sid/us-npi","value":"123456"}],"name":[{"family":"Evil","prefix":["Dr"]}]},"request":{"method":"PUT","url":"Practitioner/419b52a1-9649-47e8-b0bc-eef432904185"}},{"fullUrl":"https://madie.cms.gov/MeasureReport/4827d276-c5e9-452b-aa61-f83071d6c68d","resource":{"resourceType":"MeasureReport","id":"4827d276-c5e9-452b-aa61-f83071d6c68d","meta":{"profile":["http://hl7.org/fhir/us/cqfmeasures/StructureDefinition/test-case-cqfm"]},"contained":[{"resourceType":"Parameters","id":"c130e6bc-42c1-4682-a0cb-93bb589ce724-parameters","parameter":[{"name":"subject","valueString":"56cc4e8e-f5ba-4bd4-b69d-f7b446b3f47e"}]}],"extension":[{"url":"http://hl7.org/fhir/us/cqfmeasures/StructureDefinition/cqfm-inputParameters","valueReference":{"reference":"#c130e6bc-42c1-4682-a0cb-93bb589ce724-parameters"}},{"url":"http://hl7.org/fhir/us/cqfmeasures/StructureDefinition/cqfm-testCaseDescription","valueMarkdown":"Patient's SMM = sepsis.  No blood transfusion.\n"}],"modifierExtension":[{"url":"http://hl7.org/fhir/us/cqfmeasures/StructureDefinition/cqfm-isTestCase","valueBoolean":true}],"status":"complete","type":"individual","measure":"https://madie.cms.gov/Measure/SevereObstetricComplicationsFHIR","period":{"start":"2024-01-01","end":"2024-12-31"},"group":[{"population":[{"code":{"coding":[{"system":"http://terminology.hl7.org/CodeSystem/measure-population","code":"initial-population","display":"Initial Population"}]},"count":1},{"code":{"coding":[{"system":"http://terminology.hl7.org/CodeSystem/measure-population","code":"denominator","display":"Denominator"}]},"count":1},{"code":{"coding":[{"system":"http://terminology.hl7.org/CodeSystem/measure-population","code":"denominator-exclusion","display":"Denominator Exclusion"}]},"count":0},{"code":{"coding":[{"system":"http://terminology.hl7.org/CodeSystem/measure-population","code":"numerator","display":"Numerator"}]},"count":1}]}],"evaluatedResource":[{"reference":"Patient/56cc4e8e-f5ba-4bd4-b69d-f7b446b3f47e"},{"reference":"Observation/be9383e5-1659-42dc-a037-14aa74317499"},{"reference":"Observation/fb8d4d6d-64ca-4cdb-a83b-76375596ef3b"},{"reference":"Encounter/4da08030-fc46-498a-882a-73417ccb36b8"},{"reference":"Procedure/85d16f09-9cea-49f2-9057-26bd4c7bc9f7"},{"reference":"Condition/4590953e-ea37-4405-9205-6cbcb935fb61"},{"reference":"Coverage/df9d7a8f-9fb7-4ddc-8047-caf5d21e8cc3"},{"reference":"Organization/d2a6ca7e-b170-48f8-8357-359b9eaf4b7e"},{"reference":"Practitioner/419b52a1-9649-47e8-b0bc-eef432904185"}]},"request":{"method":"PUT","url":"MeasureReport/4827d276-c5e9-452b-aa61-f83071d6c68d"}}]}