{"resourceType":"Bundle","id":"tests-e97ae913-7895-4c4f-8b13-69f202a569f3-bundle","type":"transaction","entry":[{"fullUrl":"https://madie.cms.gov/Patient/e97ae913-7895-4c4f-8b13-69f202a569f3","resource":{"resourceType":"Patient","id":"e97ae913-7895-4c4f-8b13-69f202a569f3","meta":{"profile":["http://hl7.org/fhir/us/qicore/StructureDefinition/qicore-patient"]},"text":{"status":"generated","div":"<div xmlns=\"http://www.w3.org/1999/xhtml\"><div class=\"hapiHeaderText\">DELEncCalEGAEQ20Wks1Day <b>DENOMPASS </b></div><table class=\"hapiPropertyTable\"><tbody><tr><td>Date of birth</td><td><span>01 February 1958</span></td></tr></tbody></table></div>"},"extension":[{"url":"http://hl7.org/fhir/us/core/StructureDefinition/us-core-race","extension":[{"url":"ombCategory","valueCoding":{"system":"urn:oid:2.16.840.1.113883.6.238","code":"1002-5","display":"American Indian or Alaska Native","userSelected":true}},{"url":"text","valueString":"American Indian or Alaska Native"}]},{"url":"http://hl7.org/fhir/us/core/StructureDefinition/us-core-ethnicity","extension":[{"url":"ombCategory","valueCoding":{"system":"urn:oid:2.16.840.1.113883.6.238","code":"2135-2","display":"Hispanic or Latino","userSelected":true}},{"url":"text","valueString":"Hispanic or Latino"}]}],"identifier":[{"type":{"coding":[{"system":"http://terminology.hl7.org/CodeSystem/v2-0203","code":"MR"}]},"system":"https://bonnie-fhir.healthit.gov/","value":"633b3f9f0968f80122503cda"}],"active":true,"name":[{"use":"usual","family":"DENOMPass","given":["DELEncCalEGAEQ20Wks1Day"]}],"gender":"female","birthDate":"1970-02-01"},"request":{"method":"PUT","url":"Patient/e97ae913-7895-4c4f-8b13-69f202a569f3"}},{"fullUrl":"https://madie.cms.gov/Observation/7edac19e-6c3e-49ea-861f-d51ad495757e","resource":{"resourceType":"Observation","id":"7edac19e-6c3e-49ea-861f-d51ad495757e","meta":{"profile":["http://hl7.org/fhir/us/qicore/StructureDefinition/qicore-observation"]},"status":"final","category":[{"coding":[{"system":"http://terminology.hl7.org/CodeSystem/observation-category","code":"exam","display":"exam","userSelected":true}]}],"code":{"coding":[{"system":"http://loinc.org","code":"93857-1"}]},"subject":{"reference":"Patient/e97ae913-7895-4c4f-8b13-69f202a569f3"},"effectiveDateTime":"2024-01-15T08:00:00.000+00:00","valueDateTime":"2024-01-15T08:00:00+00:00"},"request":{"method":"PUT","url":"Observation/7edac19e-6c3e-49ea-861f-d51ad495757e"}},{"fullUrl":"https://madie.cms.gov/Observation/364bd6cd-c492-43e9-8b9c-f91c2e904996","resource":{"resourceType":"Observation","id":"364bd6cd-c492-43e9-8b9c-f91c2e904996","meta":{"profile":["http://hl7.org/fhir/us/qicore/StructureDefinition/qicore-observation"]},"status":"final","category":[{"coding":[{"system":"http://terminology.hl7.org/CodeSystem/observation-category","code":"exam","display":"exam","userSelected":true}]}],"code":{"coding":[{"system":"http://loinc.org","code":"11778-8"}]},"subject":{"reference":"Patient/e97ae913-7895-4c4f-8b13-69f202a569f3"},"effectiveDateTime":"2024-01-15T08:00:00.000+00:00","valueDateTime":"2024-06-02T08:00:00.000+00:00"},"request":{"method":"PUT","url":"Observation/364bd6cd-c492-43e9-8b9c-f91c2e904996"}},{"fullUrl":"https://madie.cms.gov/Encounter/8e1217bd-688b-4e15-8d9d-d1193d2dd1a7","resource":{"resourceType":"Encounter","id":"8e1217bd-688b-4e15-8d9d-d1193d2dd1a7","meta":{"profile":["http://hl7.org/fhir/us/qicore/StructureDefinition/qicore-encounter"]},"status":"finished","class":{"system":"http://terminology.hl7.org/CodeSystem/v3-ActCode","code":"IMP","display":"inpatient encounter"},"type":[{"coding":[{"system":"http://snomed.info/sct","code":"183452005"}]}],"subject":{"reference":"Patient/e97ae913-7895-4c4f-8b13-69f202a569f3"},"period":{"start":"2024-01-01T08:00:00.000Z","end":"2024-02-05T08:15:00.000Z"}},"request":{"method":"PUT","url":"Encounter/8e1217bd-688b-4e15-8d9d-d1193d2dd1a7"}},{"fullUrl":"https://madie.cms.gov/Procedure/13198c74-e25b-4d7e-a73b-76eb65451dee","resource":{"resourceType":"Procedure","id":"13198c74-e25b-4d7e-a73b-76eb65451dee","meta":{"profile":["http://hl7.org/fhir/us/qicore/StructureDefinition/qicore-procedure"]},"extension":[{"url":"http://hl7.org/fhir/us/qicore/StructureDefinition/qicore-recorded","valueDateTime":"2013-04-05T09:35:00-04:00"}],"status":"completed","code":{"coding":[{"system":"http://snomed.info/sct","code":"10745001"}]},"subject":{"reference":"Patient/e97ae913-7895-4c4f-8b13-69f202a569f3"},"performedPeriod":{"start":"2024-01-01T08:00:00.000Z"}},"request":{"method":"PUT","url":"Procedure/13198c74-e25b-4d7e-a73b-76eb65451dee"}},{"fullUrl":"https://madie.cms.gov/Coverage/c282362d-2b6a-48ef-969c-771d21cb8d11","resource":{"resourceType":"Coverage","id":"c282362d-2b6a-48ef-969c-771d21cb8d11","meta":{"profile":["http://hl7.org/fhir/us/qicore/StructureDefinition/qicore-coverage"]},"status":"active","beneficiary":{"reference":"Patient/e97ae913-7895-4c4f-8b13-69f202a569f3"},"payor":[{"reference":"Organization/0cf3495d-a528-473a-a901-2e00f9457a58"}]},"request":{"method":"PUT","url":"Coverage/c282362d-2b6a-48ef-969c-771d21cb8d11"}},{"fullUrl":"https://madie.cms.gov/Organization/0cf3495d-a528-473a-a901-2e00f9457a58","resource":{"resourceType":"Organization","id":"0cf3495d-a528-473a-a901-2e00f9457a58","meta":{"profile":["http://hl7.org/fhir/us/qicore/StructureDefinition/qicore-organization"]},"identifier":[{"use":"temp","system":"urn:oid:2.16.840.1.113883.4.4","value":"21-3259825"}],"active":true,"type":[{"coding":[{"system":"http://terminology.hl7.org/CodeSystem/organization-type","code":"pay","display":"Payer"}]}],"name":"Blue Cross Blue Shield of Texas","telecom":[{"system":"phone","value":"(+1) 972-766-6900"}],"address":[{"use":"billing","type":"postal","line":["P.O. Box 660044"],"city":"Dallas","state":"TX","postalCode":"75266-0044","country":"USA"}]},"request":{"method":"PUT","url":"Organization/0cf3495d-a528-473a-a901-2e00f9457a58"}},{"fullUrl":"https://madie.cms.gov/Practitioner/5b138e28-7fd7-449a-9671-11032161b3ec","resource":{"resourceType":"Practitioner","id":"5b138e28-7fd7-449a-9671-11032161b3ec","identifier":[{"system":"http://hl7.org/fhir/sid/us-npi","value":"123456"}],"name":[{"family":"Evil","prefix":["Dr"]}]},"request":{"method":"PUT","url":"Practitioner/5b138e28-7fd7-449a-9671-11032161b3ec"}},{"fullUrl":"https://madie.cms.gov/MeasureReport/ec8f8b0c-b346-418f-ba4e-15e0f59cbb6e","resource":{"resourceType":"MeasureReport","id":"ec8f8b0c-b346-418f-ba4e-15e0f59cbb6e","meta":{"profile":["http://hl7.org/fhir/us/cqfmeasures/StructureDefinition/test-case-cqfm"]},"contained":[{"resourceType":"Parameters","id":"4f7704d4-c5f7-4cdd-b32f-5f2a7a4e3f67-parameters","parameter":[{"name":"subject","valueString":"e97ae913-7895-4c4f-8b13-69f202a569f3"}]}],"extension":[{"url":"http://hl7.org/fhir/us/cqfmeasures/StructureDefinition/cqfm-inputParameters","valueReference":{"reference":"#4f7704d4-c5f7-4cdd-b32f-5f2a7a4e3f67-parameters"}},{"url":"http://hl7.org/fhir/us/cqfmeasures/StructureDefinition/cqfm-testCaseDescription","valueMarkdown":"Calculated EGA = 20 weeks and 1 day\n"}],"modifierExtension":[{"url":"http://hl7.org/fhir/us/cqfmeasures/StructureDefinition/cqfm-isTestCase","valueBoolean":true}],"status":"complete","type":"individual","measure":"https://madie.cms.gov/Measure/SevereObstetricComplicationsFHIR","period":{"start":"2024-01-01","end":"2024-12-31"},"group":[{"population":[{"code":{"coding":[{"system":"http://terminology.hl7.org/CodeSystem/measure-population","code":"initial-population","display":"Initial Population"}]},"count":1},{"code":{"coding":[{"system":"http://terminology.hl7.org/CodeSystem/measure-population","code":"denominator","display":"Denominator"}]},"count":1},{"code":{"coding":[{"system":"http://terminology.hl7.org/CodeSystem/measure-population","code":"denominator-exclusion","display":"Denominator Exclusion"}]},"count":0},{"code":{"coding":[{"system":"http://terminology.hl7.org/CodeSystem/measure-population","code":"numerator","display":"Numerator"}]},"count":0}]}],"evaluatedResource":[{"reference":"Patient/e97ae913-7895-4c4f-8b13-69f202a569f3"},{"reference":"Observation/7edac19e-6c3e-49ea-861f-d51ad495757e"},{"reference":"Observation/364bd6cd-c492-43e9-8b9c-f91c2e904996"},{"reference":"Encounter/8e1217bd-688b-4e15-8d9d-d1193d2dd1a7"},{"reference":"Procedure/13198c74-e25b-4d7e-a73b-76eb65451dee"},{"reference":"Coverage/c282362d-2b6a-48ef-969c-771d21cb8d11"},{"reference":"Organization/0cf3495d-a528-473a-a901-2e00f9457a58"},{"reference":"Practitioner/5b138e28-7fd7-449a-9671-11032161b3ec"}]},"request":{"method":"PUT","url":"MeasureReport/ec8f8b0c-b346-418f-ba4e-15e0f59cbb6e"}}]}