{"resourceType":"Bundle","id":"tests-67d26c9d-642d-4bc7-b7eb-962bc2091ca0-bundle","type":"transaction","entry":[{"fullUrl":"https://madie.cms.gov/Patient/67d26c9d-642d-4bc7-b7eb-962bc2091ca0","resource":{"resourceType":"Patient","id":"67d26c9d-642d-4bc7-b7eb-962bc2091ca0","meta":{"profile":["http://hl7.org/fhir/us/qicore/StructureDefinition/qicore-patient"]},"text":{"status":"generated","div":"<div xmlns=\"http://www.w3.org/1999/xhtml\"><div class=\"hapiHeaderText\">RISKWBC24hoursB4EDOTTriageEnc <b>RISKPass </b></div><table class=\"hapiPropertyTable\"><tbody><tr><td>Date of birth</td><td><span>01 February 2004</span></td></tr></tbody></table></div>"},"extension":[{"url":"http://hl7.org/fhir/us/core/StructureDefinition/us-core-race","extension":[{"url":"ombCategory","valueCoding":{"system":"urn:oid:2.16.840.1.113883.6.238","code":"1002-5","display":"American Indian or Alaska Native","userSelected":true}},{"url":"text","valueString":"American Indian or Alaska Native"}]},{"url":"http://hl7.org/fhir/us/core/StructureDefinition/us-core-ethnicity","extension":[{"url":"ombCategory","valueCoding":{"system":"urn:oid:2.16.840.1.113883.6.238","code":"2135-2","display":"Hispanic or Latino","userSelected":true}},{"url":"text","valueString":"Hispanic or Latino"}]}],"identifier":[{"type":{"coding":[{"system":"http://terminology.hl7.org/CodeSystem/v2-0203","code":"MR"}]},"system":"https://bonnie-fhir.healthit.gov/","value":"6359776b6aee9629c8298235"}],"active":true,"name":[{"use":"usual","family":"RiskPassWBC","given":["RISKWBC24hoursB4EDOTTriageEnc"]}],"gender":"female","birthDate":"2004-02-01"},"request":{"method":"PUT","url":"Patient/67d26c9d-642d-4bc7-b7eb-962bc2091ca0"}},{"fullUrl":"https://madie.cms.gov/Observation/45ed99c6-f107-4478-a1ce-de899b7f57ca","resource":{"resourceType":"Observation","id":"45ed99c6-f107-4478-a1ce-de899b7f57ca","meta":{"profile":["http://hl7.org/fhir/us/qicore/StructureDefinition/qicore-observation"]},"status":"final","category":[{"coding":[{"system":"http://terminology.hl7.org/CodeSystem/observation-category","code":"exam","display":"exam","userSelected":true}]}],"code":{"coding":[{"system":"http://loinc.org","code":"93857-1"}]},"subject":{"reference":"Patient/67d26c9d-642d-4bc7-b7eb-962bc2091ca0"},"effectiveDateTime":"2024-02-01T08:00:00.000+00:00","valueDateTime":"2024-02-01T08:00:00+00:00"},"request":{"method":"PUT","url":"Observation/45ed99c6-f107-4478-a1ce-de899b7f57ca"}},{"fullUrl":"https://madie.cms.gov/Observation/7da517f1-2224-4db2-bdd6-b06f3c7f68ac","resource":{"resourceType":"Observation","id":"7da517f1-2224-4db2-bdd6-b06f3c7f68ac","meta":{"profile":["http://hl7.org/fhir/us/qicore/StructureDefinition/qicore-observation"]},"status":"final","category":[{"coding":[{"system":"http://terminology.hl7.org/CodeSystem/observation-category","code":"exam","display":"exam","userSelected":true}]}],"code":{"coding":[{"system":"http://loinc.org","code":"11884-4"}]},"subject":{"reference":"Patient/67d26c9d-642d-4bc7-b7eb-962bc2091ca0"},"effectiveDateTime":"2024-02-01T08:00:00.000+00:00","valueQuantity":{"value":21,"system":"http://unitsofmeasure.org","code":"wk"}},"request":{"method":"PUT","url":"Observation/7da517f1-2224-4db2-bdd6-b06f3c7f68ac"}},{"fullUrl":"https://madie.cms.gov/Encounter/a7c37331-5ceb-4e85-92f6-aefd185ee0ce","resource":{"resourceType":"Encounter","id":"a7c37331-5ceb-4e85-92f6-aefd185ee0ce","meta":{"profile":["http://hl7.org/fhir/us/qicore/StructureDefinition/qicore-encounter"]},"status":"finished","class":{"system":"http://terminology.hl7.org/CodeSystem/v3-ActCode","code":"IMP","display":"inpatient encounter"},"type":[{"coding":[{"system":"http://snomed.info/sct","code":"183452005"}]}],"subject":{"reference":"Patient/67d26c9d-642d-4bc7-b7eb-962bc2091ca0"},"period":{"start":"2024-02-01T08:00:00.000+00:00","end":"2024-02-05T08:15:00.000+00:00"}},"request":{"method":"PUT","url":"Encounter/a7c37331-5ceb-4e85-92f6-aefd185ee0ce"}},{"fullUrl":"https://madie.cms.gov/Encounter/5c279a6d-21e9-4b51-b860-1cee0edae879","resource":{"resourceType":"Encounter","id":"5c279a6d-21e9-4b51-b860-1cee0edae879","meta":{"profile":["http://hl7.org/fhir/us/qicore/StructureDefinition/qicore-encounter"]},"status":"finished","class":{"system":"http://terminology.hl7.org/CodeSystem/v3-ActCode","code":"EMER","display":"emergency"},"type":[{"coding":[{"system":"http://snomed.info/sct","code":"4525004"}]}],"subject":{"reference":"Patient/67d26c9d-642d-4bc7-b7eb-962bc2091ca0"},"period":{"start":"2024-02-01T07:00:00.000+00:00","end":"2024-02-01T07:59:00.000+00:00"}},"request":{"method":"PUT","url":"Encounter/5c279a6d-21e9-4b51-b860-1cee0edae879"}},{"fullUrl":"https://madie.cms.gov/Procedure/bdd0c84b-40a5-4082-a5f9-746bbe6be775","resource":{"resourceType":"Procedure","id":"bdd0c84b-40a5-4082-a5f9-746bbe6be775","meta":{"profile":["http://hl7.org/fhir/us/qicore/StructureDefinition/qicore-procedure"]},"extension":[{"url":"http://hl7.org/fhir/us/qicore/StructureDefinition/qicore-recorded","valueDateTime":"2024-02-04T09:35:00-04:00"}],"status":"completed","code":{"coding":[{"system":"http://snomed.info/sct","code":"10745001"}]},"subject":{"reference":"Patient/67d26c9d-642d-4bc7-b7eb-962bc2091ca0"},"performedPeriod":{"start":"2024-02-01T08:00:00.000+00:00","end":"2024-02-05T08:15:00.000+00:00"}},"request":{"method":"PUT","url":"Procedure/bdd0c84b-40a5-4082-a5f9-746bbe6be775"}},{"fullUrl":"https://madie.cms.gov/Observation/6ec0ccd8-1897-4859-9ff3-59d8f1e41114","resource":{"resourceType":"Observation","id":"6ec0ccd8-1897-4859-9ff3-59d8f1e41114","meta":{"profile":["http://hl7.org/fhir/us/core/StructureDefinition/us-core-observation-lab"]},"status":"final","category":[{"coding":[{"system":"http://terminology.hl7.org/CodeSystem/observation-category","code":"laboratory","display":"laboratory","userSelected":true}]}],"code":{"coding":[{"system":"http://loinc.org","version":"2.73","code":"26464-8","display":"Leukocytes [#/volume] in Blood","userSelected":true}]},"subject":{"reference":"Patient/67d26c9d-642d-4bc7-b7eb-962bc2091ca0"},"effectiveDateTime":"2024-01-31T07:00:00.000+00:00","issued":"2024-01-31T07:00:00.000+00:00","valueQuantity":{"value":20,"unit":"10*3/u"}},"request":{"method":"PUT","url":"Observation/6ec0ccd8-1897-4859-9ff3-59d8f1e41114"}},{"fullUrl":"https://madie.cms.gov/MeasureReport/f6699f27-81a3-4d48-8cee-bc11a9201f9d","resource":{"resourceType":"MeasureReport","id":"f6699f27-81a3-4d48-8cee-bc11a9201f9d","meta":{"profile":["http://hl7.org/fhir/us/cqfmeasures/StructureDefinition/test-case-cqfm"]},"contained":[{"resourceType":"Parameters","id":"9590347e-65c3-45ac-83a9-f4487f946864-parameters","parameter":[{"name":"subject","valueString":"67d26c9d-642d-4bc7-b7eb-962bc2091ca0"}]}],"extension":[{"url":"http://hl7.org/fhir/us/cqfmeasures/StructureDefinition/cqfm-inputParameters","valueReference":{"reference":"#9590347e-65c3-45ac-83a9-f4487f946864-parameters"}},{"url":"http://hl7.org/fhir/us/cqfmeasures/StructureDefinition/cqfm-testCaseDescription","valueMarkdown":"Patient with WBC that starts 24 hours before ED OB Triage encounter.  \n"}],"modifierExtension":[{"url":"http://hl7.org/fhir/us/cqfmeasures/StructureDefinition/cqfm-isTestCase","valueBoolean":true}],"status":"complete","type":"individual","measure":"https://madie.cms.gov/Measure/SevereObstetricComplicationsFHIR","period":{"start":"2024-01-01","end":"2024-12-31"},"group":[{"population":[{"code":{"coding":[{"system":"http://terminology.hl7.org/CodeSystem/measure-population","code":"initial-population","display":"Initial Population"}]},"count":1},{"code":{"coding":[{"system":"http://terminology.hl7.org/CodeSystem/measure-population","code":"denominator","display":"Denominator"}]},"count":1},{"code":{"coding":[{"system":"http://terminology.hl7.org/CodeSystem/measure-population","code":"denominator-exclusion","display":"Denominator Exclusion"}]},"count":0},{"code":{"coding":[{"system":"http://terminology.hl7.org/CodeSystem/measure-population","code":"numerator","display":"Numerator"}]},"count":0}]}],"evaluatedResource":[{"reference":"Patient/67d26c9d-642d-4bc7-b7eb-962bc2091ca0"},{"reference":"Observation/45ed99c6-f107-4478-a1ce-de899b7f57ca"},{"reference":"Observation/7da517f1-2224-4db2-bdd6-b06f3c7f68ac"},{"reference":"Encounter/a7c37331-5ceb-4e85-92f6-aefd185ee0ce"},{"reference":"Encounter/5c279a6d-21e9-4b51-b860-1cee0edae879"},{"reference":"Procedure/bdd0c84b-40a5-4082-a5f9-746bbe6be775"},{"reference":"Observation/6ec0ccd8-1897-4859-9ff3-59d8f1e41114"}]},"request":{"method":"PUT","url":"MeasureReport/f6699f27-81a3-4d48-8cee-bc11a9201f9d"}}]}