{"resourceType":"Bundle","id":"tests-f6d81b87-07e9-4749-b5b7-4b9825c88535-bundle","type":"transaction","entry":[{"fullUrl":"https://madie.cms.gov/Patient/f6d81b87-07e9-4749-b5b7-4b9825c88535","resource":{"resourceType":"Patient","id":"f6d81b87-07e9-4749-b5b7-4b9825c88535","meta":{"profile":["http://hl7.org/fhir/us/qicore/StructureDefinition/qicore-patient"]},"text":{"status":"generated","div":"<div xmlns=\"http://www.w3.org/1999/xhtml\"><div class=\"hapiHeaderText\">DelProcRelDtTmEQIPEnd <b>IPPASS </b></div><table class=\"hapiPropertyTable\"><tbody><tr><td>Date of birth</td><td><span>31 January 2004</span></td></tr></tbody></table></div>"},"extension":[{"url":"http://hl7.org/fhir/us/core/StructureDefinition/us-core-race","extension":[{"url":"ombCategory","valueCoding":{"system":"urn:oid:2.16.840.1.113883.6.238","code":"1002-5","display":"American Indian or Alaska Native","userSelected":true}},{"url":"text","valueString":"American Indian or Alaska Native"}]},{"url":"http://hl7.org/fhir/us/core/StructureDefinition/us-core-ethnicity","extension":[{"url":"ombCategory","valueCoding":{"system":"urn:oid:2.16.840.1.113883.6.238","code":"2135-2","display":"Hispanic or Latino","userSelected":true}},{"url":"text","valueString":"Hispanic or Latino"}]}],"identifier":[{"type":{"coding":[{"system":"http://terminology.hl7.org/CodeSystem/v2-0203","code":"MR"}]},"system":"https://bonnie-fhir.healthit.gov/","value":"633b3fa00968f80122503d18"}],"active":true,"name":[{"use":"usual","family":"IPPass","given":["DelProcRelDtTmEQIPEnd"]}],"gender":"female","birthDate":"2004-01-31"},"request":{"method":"PUT","url":"Patient/f6d81b87-07e9-4749-b5b7-4b9825c88535"}},{"fullUrl":"https://madie.cms.gov/Encounter/62efd944-6480-474f-911c-99e33cf7f17c","resource":{"resourceType":"Encounter","id":"62efd944-6480-474f-911c-99e33cf7f17c","meta":{"profile":["http://hl7.org/fhir/us/qicore/StructureDefinition/qicore-encounter"]},"status":"finished","class":{"system":"http://terminology.hl7.org/CodeSystem/v3-ActCode","code":"IMP","display":"inpatient encounter"},"type":[{"coding":[{"system":"http://snomed.info/sct","code":"183452005"}]}],"subject":{"reference":"Patient/f6d81b87-07e9-4749-b5b7-4b9825c88535"},"period":{"start":"2024-02-01T09:00:00.000Z","end":"2024-02-05T08:15:00.000Z"}},"request":{"method":"PUT","url":"Encounter/62efd944-6480-474f-911c-99e33cf7f17c"}},{"fullUrl":"https://madie.cms.gov/Encounter/14dc2728-a1d6-4a6e-929e-efc198fe4050","resource":{"resourceType":"Encounter","id":"14dc2728-a1d6-4a6e-929e-efc198fe4050","meta":{"profile":["http://hl7.org/fhir/us/qicore/StructureDefinition/qicore-encounter"]},"status":"finished","class":{"system":"http://terminology.hl7.org/CodeSystem/v3-ActCode","code":"IMP","display":"inpatient encounter"},"type":[{"coding":[{"system":"http://snomed.info/sct","code":"448951000124107"}]}],"subject":{"reference":"Patient/f6d81b87-07e9-4749-b5b7-4b9825c88535"},"period":{"start":"2024-02-01T08:00:00.000Z","end":"2024-02-01T08:59:00.000Z"}},"request":{"method":"PUT","url":"Encounter/14dc2728-a1d6-4a6e-929e-efc198fe4050"}},{"fullUrl":"https://madie.cms.gov/Encounter/217c41f4-8656-4fa8-a1ea-49ff31302b25","resource":{"resourceType":"Encounter","id":"217c41f4-8656-4fa8-a1ea-49ff31302b25","meta":{"profile":["http://hl7.org/fhir/us/qicore/StructureDefinition/qicore-encounter"]},"status":"finished","class":{"system":"http://terminology.hl7.org/CodeSystem/v3-ActCode","code":"IMP","display":"inpatient encounter"},"type":[{"coding":[{"system":"http://snomed.info/sct","code":"4525004"}]}],"subject":{"reference":"Patient/f6d81b87-07e9-4749-b5b7-4b9825c88535"},"period":{"start":"2024-02-01T07:00:00.000Z","end":"2024-02-01T07:59:00.000Z"}},"request":{"method":"PUT","url":"Encounter/217c41f4-8656-4fa8-a1ea-49ff31302b25"}},{"fullUrl":"https://madie.cms.gov/Coverage/1db6d074-b787-400d-b06d-84eaada40de1","resource":{"resourceType":"Coverage","id":"1db6d074-b787-400d-b06d-84eaada40de1","status":"active","beneficiary":{"reference":"Patient/f6d81b87-07e9-4749-b5b7-4b9825c88535"},"period":{"start":"2004-01-31T01:00:00.000Z"},"payor":[{"reference":"Organization/ff567475-601a-4143-ba0d-be3e70e54f09"}]},"request":{"method":"PUT","url":"Coverage/1db6d074-b787-400d-b06d-84eaada40de1"}},{"fullUrl":"https://madie.cms.gov/Procedure/e3be71fd-ac2a-45e3-acb9-c74486aee0b5","resource":{"resourceType":"Procedure","id":"e3be71fd-ac2a-45e3-acb9-c74486aee0b5","meta":{"profile":["http://hl7.org/fhir/us/qicore/StructureDefinition/qicore-procedure"]},"extension":[{"url":"http://hl7.org/fhir/us/qicore/StructureDefinition/qicore-recorded","valueDateTime":"2013-04-05T09:35:00-04:00"}],"status":"completed","code":{"coding":[{"system":"http://snomed.info/sct","code":"10745001"}]},"subject":{"reference":"Patient/f6d81b87-07e9-4749-b5b7-4b9825c88535"},"performedDateTime":"2024-02-05T08:15:00.000+00:00"},"request":{"method":"PUT","url":"Procedure/e3be71fd-ac2a-45e3-acb9-c74486aee0b5"}},{"fullUrl":"https://madie.cms.gov/Organization/ff567475-601a-4143-ba0d-be3e70e54f09","resource":{"resourceType":"Organization","id":"ff567475-601a-4143-ba0d-be3e70e54f09","meta":{"profile":["http://hl7.org/fhir/us/qicore/StructureDefinition/qicore-organization"]},"identifier":[{"use":"temp","system":"urn:oid:2.16.840.1.113883.4.4","value":"21-3259825"}],"active":true,"type":[{"coding":[{"system":"http://terminology.hl7.org/CodeSystem/organization-type","code":"pay","display":"Payer"}]}],"name":"Blue Cross Blue Shield of Texas","telecom":[{"system":"phone","value":"(+1) 972-766-6900"}],"address":[{"use":"billing","type":"postal","line":["P.O. Box 660044"],"city":"Dallas","state":"TX","postalCode":"75266-0044","country":"USA"}]},"request":{"method":"PUT","url":"Organization/ff567475-601a-4143-ba0d-be3e70e54f09"}},{"fullUrl":"https://madie.cms.gov/Practitioner/a9fe0273-0c77-4286-a070-d6223a5826d1","resource":{"resourceType":"Practitioner","id":"a9fe0273-0c77-4286-a070-d6223a5826d1","identifier":[{"system":"http://hl7.org/fhir/sid/us-npi","value":"123456"}],"name":[{"family":"Evil","prefix":["Dr"]}]},"request":{"method":"PUT","url":"Practitioner/a9fe0273-0c77-4286-a070-d6223a5826d1"}},{"fullUrl":"https://madie.cms.gov/MeasureReport/3fc37807-d90a-4b2c-9a78-3a745e68df6c","resource":{"resourceType":"MeasureReport","id":"3fc37807-d90a-4b2c-9a78-3a745e68df6c","meta":{"profile":["http://hl7.org/fhir/us/cqfmeasures/StructureDefinition/test-case-cqfm"]},"contained":[{"resourceType":"Parameters","id":"e02a62f4-5b65-4894-8a3f-34c908f53374-parameters","parameter":[{"name":"subject","valueString":"f6d81b87-07e9-4749-b5b7-4b9825c88535"}]}],"extension":[{"url":"http://hl7.org/fhir/us/cqfmeasures/StructureDefinition/cqfm-inputParameters","valueReference":{"reference":"#e02a62f4-5b65-4894-8a3f-34c908f53374-parameters"}},{"url":"http://hl7.org/fhir/us/cqfmeasures/StructureDefinition/cqfm-testCaseDescription","valueMarkdown":"Delivery Procedure rel date/time = IP end.  ED/OBS/IP all meet global hospitalization criteria.\n"}],"modifierExtension":[{"url":"http://hl7.org/fhir/us/cqfmeasures/StructureDefinition/cqfm-isTestCase","valueBoolean":true}],"status":"complete","type":"individual","measure":"https://madie.cms.gov/Measure/SevereObstetricComplicationsFHIR","period":{"start":"2024-01-01","end":"2024-12-31"},"group":[{"population":[{"code":{"coding":[{"system":"http://terminology.hl7.org/CodeSystem/measure-population","code":"initial-population","display":"Initial Population"}]},"count":1},{"code":{"coding":[{"system":"http://terminology.hl7.org/CodeSystem/measure-population","code":"denominator","display":"Denominator"}]},"count":0},{"code":{"coding":[{"system":"http://terminology.hl7.org/CodeSystem/measure-population","code":"denominator-exclusion","display":"Denominator Exclusion"}]},"count":0},{"code":{"coding":[{"system":"http://terminology.hl7.org/CodeSystem/measure-population","code":"numerator","display":"Numerator"}]},"count":0}]}],"evaluatedResource":[{"reference":"Patient/f6d81b87-07e9-4749-b5b7-4b9825c88535"},{"reference":"Encounter/62efd944-6480-474f-911c-99e33cf7f17c"},{"reference":"Encounter/14dc2728-a1d6-4a6e-929e-efc198fe4050"},{"reference":"Encounter/217c41f4-8656-4fa8-a1ea-49ff31302b25"},{"reference":"Coverage/1db6d074-b787-400d-b06d-84eaada40de1"},{"reference":"Procedure/e3be71fd-ac2a-45e3-acb9-c74486aee0b5"},{"reference":"Organization/ff567475-601a-4143-ba0d-be3e70e54f09"},{"reference":"Practitioner/a9fe0273-0c77-4286-a070-d6223a5826d1"}]},"request":{"method":"PUT","url":"MeasureReport/3fc37807-d90a-4b2c-9a78-3a745e68df6c"}}]}