{"resourceType":"Bundle","id":"tests-4e3592e0-8a05-42e6-85ec-eb90a7f04118-bundle","type":"transaction","entry":[{"fullUrl":"https://madie.cms.gov/Patient/4e3592e0-8a05-42e6-85ec-eb90a7f04118","resource":{"resourceType":"Patient","id":"4e3592e0-8a05-42e6-85ec-eb90a7f04118","meta":{"profile":["http://hl7.org/fhir/us/qicore/StructureDefinition/qicore-patient"]},"text":{"status":"generated","div":"<div xmlns=\"http://www.w3.org/1999/xhtml\"><div class=\"hapiHeaderText\">EncDxEQSNOMEDShockPOAisNull <b>NUMFail </b></div><table class=\"hapiPropertyTable\"><tbody><tr><td>Date of birth</td><td><span>01 February 2004</span></td></tr></tbody></table></div>"},"extension":[{"url":"http://hl7.org/fhir/us/core/StructureDefinition/us-core-race","extension":[{"url":"ombCategory","valueCoding":{"system":"urn:oid:2.16.840.1.113883.6.238","code":"1002-5","display":"American Indian or Alaska Native","userSelected":true}},{"url":"text","valueString":"American Indian or Alaska Native"}]},{"url":"http://hl7.org/fhir/us/core/StructureDefinition/us-core-ethnicity","extension":[{"url":"ombCategory","valueCoding":{"system":"urn:oid:2.16.840.1.113883.6.238","code":"2135-2","display":"Hispanic or Latino","userSelected":true}},{"url":"text","valueString":"Hispanic or Latino"}]}],"identifier":[{"type":{"coding":[{"system":"http://terminology.hl7.org/CodeSystem/v2-0203","code":"MR"}]},"system":"https://bonnie-fhir.healthit.gov/","value":"6356dca654e383debade75aa"}],"active":true,"name":[{"use":"usual","family":"NUMFail","given":["EncDxEQSNOMEDShockPOAisNull"]}],"gender":"female","birthDate":"2004-02-01"},"request":{"method":"PUT","url":"Patient/4e3592e0-8a05-42e6-85ec-eb90a7f04118"}},{"fullUrl":"https://madie.cms.gov/Observation/0db93036-2e09-4a37-87ea-253772b2ddb8","resource":{"resourceType":"Observation","id":"0db93036-2e09-4a37-87ea-253772b2ddb8","meta":{"profile":["http://hl7.org/fhir/us/qicore/StructureDefinition/qicore-observation"]},"status":"final","category":[{"coding":[{"system":"http://terminology.hl7.org/CodeSystem/observation-category","code":"exam","display":"exam","userSelected":true}]}],"code":{"coding":[{"system":"http://loinc.org","code":"93857-1"}]},"subject":{"reference":"Patient/4e3592e0-8a05-42e6-85ec-eb90a7f04118"},"effectiveDateTime":"2024-02-01T08:00:00.000+00:00","valueDateTime":"2024-02-01T08:00:00+00:00"},"request":{"method":"PUT","url":"Observation/0db93036-2e09-4a37-87ea-253772b2ddb8"}},{"fullUrl":"https://madie.cms.gov/Observation/4e36f55e-f36a-4a1d-b23b-ecad4d46ab1b","resource":{"resourceType":"Observation","id":"4e36f55e-f36a-4a1d-b23b-ecad4d46ab1b","meta":{"profile":["http://hl7.org/fhir/us/qicore/StructureDefinition/qicore-observation"]},"status":"final","category":[{"coding":[{"system":"http://terminology.hl7.org/CodeSystem/observation-category","code":"exam","display":"exam","userSelected":true}]}],"code":{"coding":[{"system":"http://loinc.org","code":"11884-4"}]},"subject":{"reference":"Patient/4e3592e0-8a05-42e6-85ec-eb90a7f04118"},"effectiveDateTime":"2024-02-01T08:00:00.000+00:00","valueQuantity":{"value":21,"system":"http://unitsofmeasure.org","code":"wk"}},"request":{"method":"PUT","url":"Observation/4e36f55e-f36a-4a1d-b23b-ecad4d46ab1b"}},{"fullUrl":"https://madie.cms.gov/Encounter/54ea9232-eae7-4242-9477-fa7f9d78029f","resource":{"resourceType":"Encounter","id":"54ea9232-eae7-4242-9477-fa7f9d78029f","meta":{"profile":["http://hl7.org/fhir/us/qicore/StructureDefinition/qicore-encounter"]},"status":"finished","class":{"system":"http://terminology.hl7.org/CodeSystem/v3-ActCode","code":"IMP","display":"inpatient encounter"},"type":[{"coding":[{"system":"http://snomed.info/sct","code":"183452005"}]}],"subject":{"reference":"Patient/4e3592e0-8a05-42e6-85ec-eb90a7f04118"},"period":{"start":"2024-02-01T08:00:00.000Z","end":"2024-02-05T08:15:00.000Z"},"diagnosis":[{"condition":{"reference":"Condition/d1854d68-3e33-4f9f-98d2-264daa63a06c"}}]},"request":{"method":"PUT","url":"Encounter/54ea9232-eae7-4242-9477-fa7f9d78029f"}},{"fullUrl":"https://madie.cms.gov/Procedure/ed2d4b2e-9d83-425c-8b74-275096c53d5d","resource":{"resourceType":"Procedure","id":"ed2d4b2e-9d83-425c-8b74-275096c53d5d","meta":{"profile":["http://hl7.org/fhir/us/qicore/StructureDefinition/qicore-procedure"]},"extension":[{"url":"http://hl7.org/fhir/us/qicore/StructureDefinition/qicore-recorded","valueDateTime":"2013-04-05T09:35:00-04:00"}],"status":"completed","code":{"coding":[{"system":"http://snomed.info/sct","code":"10745001"}]},"subject":{"reference":"Patient/4e3592e0-8a05-42e6-85ec-eb90a7f04118"},"performedPeriod":{"start":"2024-02-01T08:00:00.000Z","end":"2024-02-05T08:15:00.000Z"}},"request":{"method":"PUT","url":"Procedure/ed2d4b2e-9d83-425c-8b74-275096c53d5d"}},{"fullUrl":"https://madie.cms.gov/Condition/d1854d68-3e33-4f9f-98d2-264daa63a06c","resource":{"resourceType":"Condition","id":"d1854d68-3e33-4f9f-98d2-264daa63a06c","meta":{"profile":["http://hl7.org/fhir/us/qicore/StructureDefinition/qicore-condition"]},"category":[{"coding":[{"system":"http://terminology.hl7.org/CodeSystem/condition-category","code":"encounter-diagnosis","display":"Encounter Diagnosis"}]}],"code":{"coding":[{"system":"http://snomed.info/sct","version":"2023","code":"1092471000119105","display":"Shock","userSelected":true}]},"subject":{"reference":"Patient/4e3592e0-8a05-42e6-85ec-eb90a7f04118"},"recordedDate":"2024-10-26T08:00:00.000+00:00"},"request":{"method":"PUT","url":"Condition/d1854d68-3e33-4f9f-98d2-264daa63a06c"}},{"fullUrl":"https://madie.cms.gov/Coverage/c5246e30-a544-4a91-b6b8-85dabf8b7032","resource":{"resourceType":"Coverage","id":"c5246e30-a544-4a91-b6b8-85dabf8b7032","meta":{"profile":["http://hl7.org/fhir/us/qicore/StructureDefinition/qicore-coverage"]},"status":"active","beneficiary":{"reference":"Patient/4e3592e0-8a05-42e6-85ec-eb90a7f04118"},"payor":[{"reference":"Organization/550fcd3a-7f9b-45b7-87f3-53a89506a14f"}]},"request":{"method":"PUT","url":"Coverage/c5246e30-a544-4a91-b6b8-85dabf8b7032"}},{"fullUrl":"https://madie.cms.gov/Organization/550fcd3a-7f9b-45b7-87f3-53a89506a14f","resource":{"resourceType":"Organization","id":"550fcd3a-7f9b-45b7-87f3-53a89506a14f","meta":{"profile":["http://hl7.org/fhir/us/qicore/StructureDefinition/qicore-organization"]},"identifier":[{"use":"temp","system":"urn:oid:2.16.840.1.113883.4.4","value":"21-3259825"}],"active":true,"type":[{"coding":[{"system":"http://terminology.hl7.org/CodeSystem/organization-type","code":"pay","display":"Payer"}]}],"name":"Blue Cross Blue Shield of Texas","telecom":[{"system":"phone","value":"(+1) 972-766-6900"}],"address":[{"use":"billing","type":"postal","line":["P.O. Box 660044"],"city":"Dallas","state":"TX","postalCode":"75266-0044","country":"USA"}]},"request":{"method":"PUT","url":"Organization/550fcd3a-7f9b-45b7-87f3-53a89506a14f"}},{"fullUrl":"https://madie.cms.gov/Practitioner/0902b4d9-fc7c-4c2b-81d3-1435380c7358","resource":{"resourceType":"Practitioner","id":"0902b4d9-fc7c-4c2b-81d3-1435380c7358","identifier":[{"system":"http://hl7.org/fhir/sid/us-npi","value":"123456"}],"name":[{"family":"Evil","prefix":["Dr"]}]},"request":{"method":"PUT","url":"Practitioner/0902b4d9-fc7c-4c2b-81d3-1435380c7358"}},{"fullUrl":"https://madie.cms.gov/MeasureReport/b2ce9d37-24f9-40ef-bace-a39f1d0bc62a","resource":{"resourceType":"MeasureReport","id":"b2ce9d37-24f9-40ef-bace-a39f1d0bc62a","meta":{"profile":["http://hl7.org/fhir/us/cqfmeasures/StructureDefinition/test-case-cqfm"]},"contained":[{"resourceType":"Parameters","id":"6b80854e-496f-4493-87dc-429d0d50be0b-parameters","parameter":[{"name":"subject","valueString":"4e3592e0-8a05-42e6-85ec-eb90a7f04118"}]}],"extension":[{"url":"http://hl7.org/fhir/us/cqfmeasures/StructureDefinition/cqfm-inputParameters","valueReference":{"reference":"#6b80854e-496f-4493-87dc-429d0d50be0b-parameters"}},{"url":"http://hl7.org/fhir/us/cqfmeasures/StructureDefinition/cqfm-testCaseDescription","valueMarkdown":"EncDx= shock.  A SNOMED code is entered and therefore case will fail as SNOMED codes are not in the value set for SMM Diagnoses.\n"}],"modifierExtension":[{"url":"http://hl7.org/fhir/us/cqfmeasures/StructureDefinition/cqfm-isTestCase","valueBoolean":true}],"status":"complete","type":"individual","measure":"https://madie.cms.gov/Measure/SevereObstetricComplicationsFHIR","period":{"start":"2024-01-01","end":"2024-12-31"},"group":[{"population":[{"code":{"coding":[{"system":"http://terminology.hl7.org/CodeSystem/measure-population","code":"initial-population","display":"Initial Population"}]},"count":1},{"code":{"coding":[{"system":"http://terminology.hl7.org/CodeSystem/measure-population","code":"denominator","display":"Denominator"}]},"count":1},{"code":{"coding":[{"system":"http://terminology.hl7.org/CodeSystem/measure-population","code":"denominator-exclusion","display":"Denominator Exclusion"}]},"count":0},{"code":{"coding":[{"system":"http://terminology.hl7.org/CodeSystem/measure-population","code":"numerator","display":"Numerator"}]},"count":0}]}],"evaluatedResource":[{"reference":"Patient/4e3592e0-8a05-42e6-85ec-eb90a7f04118"},{"reference":"Observation/0db93036-2e09-4a37-87ea-253772b2ddb8"},{"reference":"Observation/4e36f55e-f36a-4a1d-b23b-ecad4d46ab1b"},{"reference":"Encounter/54ea9232-eae7-4242-9477-fa7f9d78029f"},{"reference":"Procedure/ed2d4b2e-9d83-425c-8b74-275096c53d5d"},{"reference":"Condition/d1854d68-3e33-4f9f-98d2-264daa63a06c"},{"reference":"Coverage/c5246e30-a544-4a91-b6b8-85dabf8b7032"},{"reference":"Organization/550fcd3a-7f9b-45b7-87f3-53a89506a14f"},{"reference":"Practitioner/0902b4d9-fc7c-4c2b-81d3-1435380c7358"}]},"request":{"method":"PUT","url":"MeasureReport/b2ce9d37-24f9-40ef-bace-a39f1d0bc62a"}}]}