{"resourceType":"Bundle","id":"tests-a3689590-0313-4fad-831c-e3ff0ae03d60-bundle","type":"transaction","entry":[{"fullUrl":"https://madie.cms.gov/Patient/a3689590-0313-4fad-831c-e3ff0ae03d60","resource":{"resourceType":"Patient","id":"a3689590-0313-4fad-831c-e3ff0ae03d60","meta":{"profile":["http://hl7.org/fhir/us/qicore/StructureDefinition/qicore-patient"]},"text":{"status":"generated","div":"<div xmlns=\"http://www.w3.org/1999/xhtml\"><div class=\"hapiHeaderText\">RISKSBP24hours1MinB4EDOTTriageEnc <b>RISKFail </b></div><table class=\"hapiPropertyTable\"><tbody><tr><td>Date of birth</td><td><span>01 February 2004</span></td></tr></tbody></table></div>"},"extension":[{"url":"http://hl7.org/fhir/us/core/StructureDefinition/us-core-race","extension":[{"url":"ombCategory","valueCoding":{"system":"urn:oid:2.16.840.1.113883.6.238","code":"1002-5","display":"American Indian or Alaska Native","userSelected":true}},{"url":"text","valueString":"American Indian or Alaska Native"}]},{"url":"http://hl7.org/fhir/us/core/StructureDefinition/us-core-ethnicity","extension":[{"url":"ombCategory","valueCoding":{"system":"urn:oid:2.16.840.1.113883.6.238","code":"2135-2","display":"Hispanic or Latino","userSelected":true}},{"url":"text","valueString":"Hispanic or Latino"}]}],"identifier":[{"type":{"coding":[{"system":"http://terminology.hl7.org/CodeSystem/v2-0203","code":"MR"}]},"system":"https://bonnie-fhir.healthit.gov/","value":"63598dd9c35f1c19df09adbd"}],"active":true,"name":[{"use":"usual","family":"RISKFail","given":["RISKSBP24hours1MinB4EDOTTriageEnc"]}],"gender":"female","birthDate":"2004-02-01"},"request":{"method":"PUT","url":"Patient/a3689590-0313-4fad-831c-e3ff0ae03d60"}},{"fullUrl":"https://madie.cms.gov/Observation/d73fa935-4c46-4a92-8ae7-0b482fc6ed3d","resource":{"resourceType":"Observation","id":"d73fa935-4c46-4a92-8ae7-0b482fc6ed3d","meta":{"profile":["http://hl7.org/fhir/us/qicore/StructureDefinition/qicore-observation"]},"status":"final","category":[{"coding":[{"system":"http://terminology.hl7.org/CodeSystem/observation-category","code":"exam","display":"exam","userSelected":true}]}],"code":{"coding":[{"system":"http://loinc.org","code":"93857-1"}]},"subject":{"reference":"Patient/a3689590-0313-4fad-831c-e3ff0ae03d60"},"effectiveDateTime":"2024-02-01T08:00:00.000+00:00","valueDateTime":"2024-02-01T08:00:00+00:00"},"request":{"method":"PUT","url":"Observation/d73fa935-4c46-4a92-8ae7-0b482fc6ed3d"}},{"fullUrl":"https://madie.cms.gov/Observation/75e7bdc3-2fb4-41f0-83d6-240e22e55d25","resource":{"resourceType":"Observation","id":"75e7bdc3-2fb4-41f0-83d6-240e22e55d25","meta":{"profile":["http://hl7.org/fhir/us/qicore/StructureDefinition/qicore-observation"]},"status":"final","category":[{"coding":[{"system":"http://terminology.hl7.org/CodeSystem/observation-category","code":"exam","display":"exam","userSelected":true}]}],"code":{"coding":[{"system":"http://loinc.org","code":"11884-4"}]},"subject":{"reference":"Patient/a3689590-0313-4fad-831c-e3ff0ae03d60"},"effectiveDateTime":"2024-02-01T08:00:00.000+00:00","valueQuantity":{"value":21,"system":"http://unitsofmeasure.org","code":"wk"}},"request":{"method":"PUT","url":"Observation/75e7bdc3-2fb4-41f0-83d6-240e22e55d25"}},{"fullUrl":"https://madie.cms.gov/Encounter/0759ddbb-6a6e-4259-a698-72fa6e218f67","resource":{"resourceType":"Encounter","id":"0759ddbb-6a6e-4259-a698-72fa6e218f67","meta":{"profile":["http://hl7.org/fhir/us/qicore/StructureDefinition/qicore-encounter"]},"status":"finished","class":{"system":"http://terminology.hl7.org/CodeSystem/v3-ActCode","code":"IMP","display":"inpatient encounter"},"type":[{"coding":[{"system":"http://snomed.info/sct","code":"183452005"}]}],"subject":{"reference":"Patient/a3689590-0313-4fad-831c-e3ff0ae03d60"},"period":{"start":"2024-02-01T08:00:00.000+00:00","end":"2024-02-05T08:15:00.000+00:00"}},"request":{"method":"PUT","url":"Encounter/0759ddbb-6a6e-4259-a698-72fa6e218f67"}},{"fullUrl":"https://madie.cms.gov/Encounter/17dabf87-4712-4353-b33c-7f0de7c787a3","resource":{"resourceType":"Encounter","id":"17dabf87-4712-4353-b33c-7f0de7c787a3","meta":{"profile":["http://hl7.org/fhir/us/qicore/StructureDefinition/qicore-encounter"]},"status":"finished","class":{"system":"http://terminology.hl7.org/CodeSystem/v3-ActCode","code":"EMER","display":"emergency"},"type":[{"coding":[{"system":"http://snomed.info/sct","code":"4525004"}]}],"subject":{"reference":"Patient/a3689590-0313-4fad-831c-e3ff0ae03d60"},"period":{"start":"2024-02-01T07:00:00.000+00:00","end":"2024-02-01T07:59:00.000+00:00"}},"request":{"method":"PUT","url":"Encounter/17dabf87-4712-4353-b33c-7f0de7c787a3"}},{"fullUrl":"https://madie.cms.gov/Procedure/adb66cc4-f305-47f7-a82c-2f11f5b04c38","resource":{"resourceType":"Procedure","id":"adb66cc4-f305-47f7-a82c-2f11f5b04c38","meta":{"profile":["http://hl7.org/fhir/us/qicore/StructureDefinition/qicore-procedure"]},"extension":[{"url":"http://hl7.org/fhir/us/qicore/StructureDefinition/qicore-recorded","valueDateTime":"2024-02-04T09:35:00-04:00"}],"status":"completed","code":{"coding":[{"system":"http://snomed.info/sct","code":"10745001"}]},"subject":{"reference":"Patient/a3689590-0313-4fad-831c-e3ff0ae03d60"},"performedPeriod":{"start":"2024-02-01T08:00:00.000+00:00","end":"2024-02-05T08:15:00.000+00:00"}},"request":{"method":"PUT","url":"Procedure/adb66cc4-f305-47f7-a82c-2f11f5b04c38"}},{"fullUrl":"https://madie.cms.gov/Observation/09936e3a-3b92-4e71-906e-523c78c62015","resource":{"resourceType":"Observation","id":"09936e3a-3b92-4e71-906e-523c78c62015","meta":{"profile":["http://hl7.org/fhir/StructureDefinition/bp"]},"status":"final","category":[{"coding":[{"system":"http://terminology.hl7.org/CodeSystem/observation-category","code":"vital-signs","display":"vital-signs","userSelected":true}]}],"code":{"coding":[{"system":"http://loinc.org","code":"85354-9","display":"Blood pressure panel with all children optional"}]},"subject":{"reference":"Patient/a3689590-0313-4fad-831c-e3ff0ae03d60"},"effectiveDateTime":"2024-01-31T06:59:00.000+00:00","component":[{"code":{"coding":[{"system":"http://loinc.org","code":"8480-6","display":"Systolic blood pressure"}]},"valueQuantity":{"value":165,"unit":"mmHg","system":"http://unitsofmeasure.org","code":"mm[Hg]"}},{"code":{"coding":[{"system":"http://loinc.org","code":"8462-4","display":"Diastolic blood pressure"}]},"valueQuantity":{"value":85,"unit":"mmHg","system":"http://unitsofmeasure.org","code":"mm[Hg]"}}]},"request":{"method":"PUT","url":"Observation/09936e3a-3b92-4e71-906e-523c78c62015"}},{"fullUrl":"https://madie.cms.gov/MeasureReport/b7378756-a793-44e1-8481-ce9e84aff80e","resource":{"resourceType":"MeasureReport","id":"b7378756-a793-44e1-8481-ce9e84aff80e","meta":{"profile":["http://hl7.org/fhir/us/cqfmeasures/StructureDefinition/test-case-cqfm"]},"contained":[{"resourceType":"Parameters","id":"3ccdf982-af92-40c7-9252-bbdc513abddb-parameters","parameter":[{"name":"subject","valueString":"a3689590-0313-4fad-831c-e3ff0ae03d60"}]}],"extension":[{"url":"http://hl7.org/fhir/us/cqfmeasures/StructureDefinition/cqfm-inputParameters","valueReference":{"reference":"#3ccdf982-af92-40c7-9252-bbdc513abddb-parameters"}},{"url":"http://hl7.org/fhir/us/cqfmeasures/StructureDefinition/cqfm-testCaseDescription","valueMarkdown":"Patient with systolic blood pressure that starts 24 hours and 1 minute before ED OB Triage encounter.  \n"}],"modifierExtension":[{"url":"http://hl7.org/fhir/us/cqfmeasures/StructureDefinition/cqfm-isTestCase","valueBoolean":true}],"status":"complete","type":"individual","measure":"https://madie.cms.gov/Measure/SevereObstetricComplicationsFHIR","period":{"start":"2024-01-01","end":"2024-12-31"},"group":[{"population":[{"code":{"coding":[{"system":"http://terminology.hl7.org/CodeSystem/measure-population","code":"initial-population","display":"Initial Population"}]},"count":1},{"code":{"coding":[{"system":"http://terminology.hl7.org/CodeSystem/measure-population","code":"denominator","display":"Denominator"}]},"count":1},{"code":{"coding":[{"system":"http://terminology.hl7.org/CodeSystem/measure-population","code":"denominator-exclusion","display":"Denominator Exclusion"}]},"count":0},{"code":{"coding":[{"system":"http://terminology.hl7.org/CodeSystem/measure-population","code":"numerator","display":"Numerator"}]},"count":0}]}],"evaluatedResource":[{"reference":"Patient/a3689590-0313-4fad-831c-e3ff0ae03d60"},{"reference":"Observation/d73fa935-4c46-4a92-8ae7-0b482fc6ed3d"},{"reference":"Observation/75e7bdc3-2fb4-41f0-83d6-240e22e55d25"},{"reference":"Encounter/0759ddbb-6a6e-4259-a698-72fa6e218f67"},{"reference":"Encounter/17dabf87-4712-4353-b33c-7f0de7c787a3"},{"reference":"Procedure/adb66cc4-f305-47f7-a82c-2f11f5b04c38"},{"reference":"Observation/09936e3a-3b92-4e71-906e-523c78c62015"}]},"request":{"method":"PUT","url":"MeasureReport/b7378756-a793-44e1-8481-ce9e84aff80e"}}]}