{
  "resourceType": "Bundle",
  "id": "63594c7a6aee9629c82981df",
  "type": "transaction",
  "entry": [
    {
      "fullUrl": "https://madie.cms.gov/Patient/b8d7fb81-5076-4514-b610-cdb775c7fff4",
      "resource": {
        "resourceType": "Patient",
        "id": "b8d7fb81-5076-4514-b610-cdb775c7fff4",
        "meta": {
          "profile": [
            "http://hl7.org/fhir/us/qicore/StructureDefinition/qicore-patient"
          ]
        },
        "text": {
          "status": "generated",
          "div": "<div xmlns=\"http://www.w3.org/1999/xhtml\"><div class=\"hapiHeaderText\">Risk_BleedingDisorder<b>RISKPass </b></div><table class=\"hapiPropertyTable\"><tbody><tr><td>Date of birth</td><td><span>01 February 2004</span></td></tr></tbody></table></div>"
        },
        "extension": [
          {
            "url": "http://hl7.org/fhir/us/core/StructureDefinition/us-core-race",
            "extension": [
              {
                "url": "ombCategory",
                "valueCoding": {
                  "system": "urn:oid:2.16.840.1.113883.6.238",
                  "code": "1002-5",
                  "display": "American Indian or Alaska Native",
                  "userSelected": true
                }
              },
              {
                "url": "text",
                "valueString": "American Indian or Alaska Native"
              }
            ]
          },
          {
            "url": "http://hl7.org/fhir/us/core/StructureDefinition/us-core-ethnicity",
            "extension": [
              {
                "url": "ombCategory",
                "valueCoding": {
                  "system": "urn:oid:2.16.840.1.113883.6.238",
                  "code": "2135-2",
                  "display": "Hispanic or Latino",
                  "userSelected": true
                }
              },
              {
                "url": "text",
                "valueString": "Hispanic or Latino"
              }
            ]
          }
        ],
        "identifier": [
          {
            "type": {
              "coding": [
                {
                  "system": "http://terminology.hl7.org/CodeSystem/v2-0203",
                  "code": "MR"
                }
              ]
            },
            "system": "https://bonnie-fhir.healthit.gov/",
            "value": "63594c7a6aee9629c82981df"
          }
        ],
        "active": true,
        "name": [
          {
            "use": "usual",
            "family": "RiskPass",
            "given": [
              "Risk_BleedingDisorder"
            ]
          }
        ],
        "gender": "female",
        "birthDate": "2004-02-01"
      },
      "request": {
        "method": "PUT",
        "url": "Patient/b8d7fb81-5076-4514-b610-cdb775c7fff4"
      }
    },
    {
      "fullUrl": "https://madie.cms.gov/Observation/9a751c8c-90b8-483b-b76b-815f137eceea",
      "resource": {
        "resourceType": "Observation",
        "id": "9a751c8c-90b8-483b-b76b-815f137eceea",
        "meta": {
          "profile": [
            "http://hl7.org/fhir/us/qicore/StructureDefinition/qicore-observation"
          ]
        },
        "status": "final",
        "category": [
          {
            "coding": [
              {
                "system": "http://terminology.hl7.org/CodeSystem/observation-category",
                "code": "exam",
                "display": "exam",
                "userSelected": true
              }
            ]
          }
        ],
        "code": {
          "coding": [
            {
              "system": "http://loinc.org",
              "code": "93857-1"
            }
          ]
        },
        "subject": {
          "reference": "Patient/b8d7fb81-5076-4514-b610-cdb775c7fff4"
        },
        "effectiveDateTime": "2024-02-01T08:00:00.000+00:00",
        "valueDateTime": "2024-02-01T08:00:00+00:00"
      },
      "request": {
        "method": "PUT",
        "url": "Observation/9a751c8c-90b8-483b-b76b-815f137eceea"
      }
    },
    {
      "fullUrl": "https://madie.cms.gov/Observation/6593cd6b-7032-446d-a511-65e73d24f8eb",
      "resource": {
        "resourceType": "Observation",
        "id": "6593cd6b-7032-446d-a511-65e73d24f8eb",
        "meta": {
          "profile": [
            "http://hl7.org/fhir/us/qicore/StructureDefinition/qicore-observation"
          ]
        },
        "status": "final",
        "category": [
          {
            "coding": [
              {
                "system": "http://terminology.hl7.org/CodeSystem/observation-category",
                "code": "exam",
                "display": "exam",
                "userSelected": true
              }
            ]
          }
        ],
        "code": {
          "coding": [
            {
              "system": "http://loinc.org",
              "code": "11778-8"
            }
          ]
        },
        "subject": {
          "reference": "Patient/b8d7fb81-5076-4514-b610-cdb775c7fff4"
        },
        "effectiveDateTime": "2024-02-01T08:00:00.000+00:00",
        "valueDateTime": "2024-02-01T00:00:00.000+00:00"
      },
      "request": {
        "method": "PUT",
        "url": "Observation/6593cd6b-7032-446d-a511-65e73d24f8eb"
      }
    },
    {
      "fullUrl": "https://madie.cms.gov/Encounter/ac4959ae-877c-491f-9f28-825f4b83596c",
      "resource": {
        "resourceType": "Encounter",
        "id": "ac4959ae-877c-491f-9f28-825f4b83596c",
        "meta": {
          "profile": [
            "http://hl7.org/fhir/us/qicore/StructureDefinition/qicore-encounter"
          ]
        },
        "status": "finished",
        "class": {
          "system": "http://terminology.hl7.org/CodeSystem/v3-ActCode",
          "code": "IMP",
          "display": "inpatient encounter"
        },
        "type": [
          {
            "coding": [
              {
                "system": "http://snomed.info/sct",
                "code": "183452005"
              }
            ]
          }
        ],
        "subject": {
          "reference": "Patient/b8d7fb81-5076-4514-b610-cdb775c7fff4"
        },
        "period": {
          "start": "2024-02-01T08:00:00.000Z",
          "end": "2024-02-05T08:15:00.000Z"
        },
        "diagnosis": [
          {
            "extension": [
              {
                "url": "http://hl7.org/fhir/us/qicore/StructureDefinition/qicore-encounter-diagnosisPresentOnAdmission",
                "valueCodeableConcept": {
                  "coding": [
                    {
                      "system": "https://www.cms.gov/Medicare/Medicare-Fee-for-Service-Payment/HospitalAcqCond/Coding",
                      "code": "Y"
                    }
                  ]
                }
              }
            ],
            "condition": {
              "reference": "Resource/BleedingDisorder-81e0"
            }
          },
          {
            "extension": [
              {
                "url": "http://hl7.org/fhir/us/qicore/StructureDefinition/qicore-encounter-diagnosisPresentOnAdmission",
                "valueCodeableConcept": {
                  "coding": [
                    {
                      "system": "https://www.cms.gov/Medicare/Medicare-Fee-for-Service-Payment/HospitalAcqCond/Coding",
                      "code": "N"
                    }
                  ]
                }
              }
            ],
            "condition": {
              "reference": "Resource/severe-maternal-morbidity-diagnoses-adc1"
            }
          }
        ]
      },
      "request": {
        "method": "PUT",
        "url": "Encounter/ac4959ae-877c-491f-9f28-825f4b83596c"
      }
    },
    {
      "fullUrl": "https://madie.cms.gov/Procedure/bf19699e-99db-4fa7-b8bf-6b9f0dd6b1e2",
      "resource": {
        "resourceType": "Procedure",
        "id": "bf19699e-99db-4fa7-b8bf-6b9f0dd6b1e2",
        "meta": {
          "profile": [
            "http://hl7.org/fhir/us/qicore/StructureDefinition/qicore-procedure"
          ]
        },
        "extension": [
          {
            "url": "http://hl7.org/fhir/us/qicore/StructureDefinition/qicore-recorded",
            "valueDateTime": "2013-04-05T09:35:00-04:00"
          }
        ],
        "status": "completed",
        "code": {
          "coding": [
            {
              "system": "http://snomed.info/sct",
              "code": "10745001"
            }
          ]
        },
        "subject": {
          "reference": "Patient/b8d7fb81-5076-4514-b610-cdb775c7fff4"
        },
        "performedDateTime": "2024-02-01T08:00:00.000+00:00"
      },
      "request": {
        "method": "PUT",
        "url": "Procedure/bf19699e-99db-4fa7-b8bf-6b9f0dd6b1e2"
      }
    },
    {
      "fullUrl": "https://madie.cms.gov/Condition/3f0d9743-6c6c-4512-b050-ff8d25b6daf7",
      "resource": {
        "resourceType": "Condition",
        "id": "3f0d9743-6c6c-4512-b050-ff8d25b6daf7",
        "meta": {
          "profile": [
            "http://hl7.org/fhir/us/qicore/StructureDefinition/qicore-condition"
          ]
        },
        "category": [
          {
            "coding": [
              {
                "system": "http://terminology.hl7.org/CodeSystem/condition-category",
                "code": "encounter-diagnosis",
                "display": "Encounter Diagnosis"
              }
            ]
          }
        ],
        "code": {
          "coding": [
            {
              "system": "http://hl7.org/fhir/sid/icd-10-cm",
              "version": "2023",
              "code": "A32.7",
              "display": "Listerial sepsis",
              "userSelected": true
            }
          ]
        },
        "subject": {
          "reference": "Patient/b8d7fb81-5076-4514-b610-cdb775c7fff4"
        },
        "recordedDate": "2024-10-26T08:00:00.000+00:00"
      },
      "request": {
        "method": "PUT",
        "url": "Condition/3f0d9743-6c6c-4512-b050-ff8d25b6daf7"
      }
    },
    {
      "fullUrl": "https://madie.cms.gov/Condition/39c7811f-648a-44a7-8219-6d13de81620f",
      "resource": {
        "resourceType": "Condition",
        "id": "39c7811f-648a-44a7-8219-6d13de81620f",
        "meta": {
          "profile": [
            "http://hl7.org/fhir/us/qicore/StructureDefinition/qicore-condition"
          ]
        },
        "category": [
          {
            "coding": [
              {
                "system": "http://terminology.hl7.org/CodeSystem/condition-category",
                "code": "encounter-diagnosis",
                "display": "Encounter Diagnosis"
              }
            ]
          }
        ],
        "code": {
          "coding": [
            {
              "system": "http://hl7.org/fhir/sid/icd-10-cm",
              "version": "2023",
              "code": "D66",
              "display": "Bleeding BleedingDisorder-81e0",
              "userSelected": true
            }
          ]
        },
        "subject": {
          "reference": "Patient/b8d7fb81-5076-4514-b610-cdb775c7fff4"
        },
        "recordedDate": "2024-10-26T08:00:00.000+00:00"
      },
      "request": {
        "method": "PUT",
        "url": "Condition/39c7811f-648a-44a7-8219-6d13de81620f"
      }
    },
    {
      "fullUrl": "https://madie.cms.gov/MeasureReport/8966f4a0-cf28-488e-a4e9-7bbb455cb11a",
      "resource": {
        "resourceType": "MeasureReport",
        "id": "8966f4a0-cf28-488e-a4e9-7bbb455cb11a",
        "meta": {
          "profile": [
            "http://hl7.org/fhir/us/cqfmeasures/StructureDefinition/test-case-cqfm"
          ]
        },
        "contained": [
          {
            "resourceType": "Parameters",
            "id": "6f24d4af-123c-4ebc-8ac7-dd15dd7394da-parameters",
            "parameter": [
              {
                "name": "subject",
                "valueString": "b8d7fb81-5076-4514-b610-cdb775c7fff4"
              }
            ]
          }
        ],
        "extension": [
          {
            "url": "http://hl7.org/fhir/us/cqfmeasures/StructureDefinition/cqfm-inputParameters",
            "valueReference": {
              "reference": "#6f24d4af-123c-4ebc-8ac7-dd15dd7394da-parameters"
            }
          },
          {
            "url": "http://hl7.org/fhir/us/cqfmeasures/StructureDefinition/cqfm-testCaseDescription",
            "valueMarkdown": "Risk variable of bleeding disorder.\n\n"
          }
        ],
        "modifierExtension": [
          {
            "url": "http://hl7.org/fhir/us/cqfmeasures/StructureDefinition/cqfm-isTestCase",
            "valueBoolean": true
          }
        ],
        "status": "complete",
        "type": "individual",
        "measure": "https://madie.cms.gov/Measure/SevereObstetricComplicationsFHIR",
        "period": {
          "start": "2024-01-01",
          "end": "2024-12-31"
        },
        "group": [
          {
            "population": [
              {
                "code": {
                  "coding": [
                    {
                      "system": "http://terminology.hl7.org/CodeSystem/measure-population",
                      "code": "initial-population",
                      "display": "Initial Population"
                    }
                  ]
                },
                "count": 1
              },
              {
                "code": {
                  "coding": [
                    {
                      "system": "http://terminology.hl7.org/CodeSystem/measure-population",
                      "code": "denominator",
                      "display": "Denominator"
                    }
                  ]
                },
                "count": 1
              },
              {
                "code": {
                  "coding": [
                    {
                      "system": "http://terminology.hl7.org/CodeSystem/measure-population",
                      "code": "denominator-exclusion",
                      "display": "Denominator Exclusion"
                    }
                  ]
                },
                "count": 0
              },
              {
                "code": {
                  "coding": [
                    {
                      "system": "http://terminology.hl7.org/CodeSystem/measure-population",
                      "code": "numerator",
                      "display": "Numerator"
                    }
                  ]
                },
                "count": 1
              }
            ]
          }
        ],
        "evaluatedResource": [
          {
            "reference": "Patient/b8d7fb81-5076-4514-b610-cdb775c7fff4"
          },
          {
            "reference": "Observation/9a751c8c-90b8-483b-b76b-815f137eceea"
          },
          {
            "reference": "Observation/6593cd6b-7032-446d-a511-65e73d24f8eb"
          },
          {
            "reference": "Encounter/ac4959ae-877c-491f-9f28-825f4b83596c"
          },
          {
            "reference": "Procedure/bf19699e-99db-4fa7-b8bf-6b9f0dd6b1e2"
          },
          {
            "reference": "Condition/3f0d9743-6c6c-4512-b050-ff8d25b6daf7"
          },
          {
            "reference": "Condition/39c7811f-648a-44a7-8219-6d13de81620f"
          }
        ]
      },
      "request": {
        "method": "PUT",
        "url": "MeasureReport/8966f4a0-cf28-488e-a4e9-7bbb455cb11a"
      }
    }
  ]
}