{
  "resourceType": "Bundle",
  "id": "6356d03854e383debade759e",
  "type": "transaction",
  "entry": [
    {
      "fullUrl": "https://madie.cms.gov/Patient/b76f60da-f8a1-4ac5-a386-1d5cb8aa843a",
      "resource": {
        "resourceType": "Patient",
        "id": "b76f60da-f8a1-4ac5-a386-1d5cb8aa843a",
        "meta": {
          "profile": [
            "http://hl7.org/fhir/us/qicore/StructureDefinition/qicore-patient"
          ]
        },
        "text": {
          "status": "generated",
          "div": "<div xmlns=\"http://www.w3.org/1999/xhtml\"><div class=\"hapiHeaderText\">CalcEGA19WksDxCode20Weeks <b>DENOMFAIL </b></div><table class=\"hapiPropertyTable\"><tbody><tr><td>Date of birth</td><td><span>01 February 2004</span></td></tr></tbody></table></div>"
        },
        "extension": [
          {
            "url": "http://hl7.org/fhir/us/core/StructureDefinition/us-core-race",
            "extension": [
              {
                "url": "ombCategory",
                "valueCoding": {
                  "system": "urn:oid:2.16.840.1.113883.6.238",
                  "code": "1002-5",
                  "display": "American Indian or Alaska Native",
                  "userSelected": true
                }
              },
              {
                "url": "text",
                "valueString": "American Indian or Alaska Native"
              }
            ]
          },
          {
            "url": "http://hl7.org/fhir/us/core/StructureDefinition/us-core-ethnicity",
            "extension": [
              {
                "url": "ombCategory",
                "valueCoding": {
                  "system": "urn:oid:2.16.840.1.113883.6.238",
                  "code": "2135-2",
                  "display": "Hispanic or Latino",
                  "userSelected": true
                }
              },
              {
                "url": "text",
                "valueString": "Hispanic or Latino"
              }
            ]
          }
        ],
        "identifier": [
          {
            "type": {
              "coding": [
                {
                  "system": "http://terminology.hl7.org/CodeSystem/v2-0203",
                  "code": "MR"
                }
              ]
            },
            "system": "https://bonnie-fhir.healthit.gov/",
            "value": "6356d03854e383debade759e"
          }
        ],
        "active": true,
        "name": [
          {
            "use": "usual",
            "family": "DENOMFail",
            "given": [
              "CalcEGA19WksDxCode20Weeks"
            ]
          }
        ],
        "gender": "female",
        "birthDate": "2004-02-01"
      },
      "request": {
        "method": "PUT",
        "url": "Patient/b76f60da-f8a1-4ac5-a386-1d5cb8aa843a"
      }
    },
    {
      "fullUrl": "https://madie.cms.gov/Observation/5491f4b0-0190-4c59-a4a7-da9177a4a40b",
      "resource": {
        "resourceType": "Observation",
        "id": "5491f4b0-0190-4c59-a4a7-da9177a4a40b",
        "meta": {
          "profile": [
            "http://hl7.org/fhir/us/qicore/StructureDefinition/qicore-observation"
          ]
        },
        "status": "final",
        "category": [
          {
            "coding": [
              {
                "system": "http://terminology.hl7.org/CodeSystem/observation-category",
                "code": "exam",
                "display": "exam",
                "userSelected": true
              }
            ]
          }
        ],
        "code": {
          "coding": [
            {
              "system": "http://loinc.org",
              "code": "93857-1"
            }
          ]
        },
        "subject": {
          "reference": "Patient/b76f60da-f8a1-4ac5-a386-1d5cb8aa843a"
        },
        "effectiveDateTime": "2024-01-15T08:00:00.000+00:00",
        "valueDateTime": "2024-01-15T08:00:00.000+00:00"
      },
      "request": {
        "method": "PUT",
        "url": "Observation/5491f4b0-0190-4c59-a4a7-da9177a4a40b"
      }
    },
    {
      "fullUrl": "https://madie.cms.gov/Encounter/7a1c55b6-a333-435e-8ecb-7b1305ccab92",
      "resource": {
        "resourceType": "Encounter",
        "id": "7a1c55b6-a333-435e-8ecb-7b1305ccab92",
        "meta": {
          "profile": [
            "http://hl7.org/fhir/us/qicore/StructureDefinition/qicore-encounter"
          ]
        },
        "status": "finished",
        "class": {
          "system": "http://terminology.hl7.org/CodeSystem/v3-ActCode",
          "code": "IMP",
          "display": "inpatient encounter"
        },
        "type": [
          {
            "coding": [
              {
                "system": "http://snomed.info/sct",
                "code": "183452005"
              }
            ]
          }
        ],
        "subject": {
          "reference": "Patient/b76f60da-f8a1-4ac5-a386-1d5cb8aa843a"
        },
        "period": {
          "start": "2024-01-01T08:00:00.000Z",
          "end": "2024-02-05T08:15:00.000Z"
        },
        "diagnosis": [
          {
            "condition": {
              "reference": "Condition/3b8605aa-4504-4f4e-9466-ed65338aad6a"
            }
          }
        ]
      },
      "request": {
        "method": "PUT",
        "url": "Encounter/7a1c55b6-a333-435e-8ecb-7b1305ccab92"
      }
    },
    {
      "fullUrl": "https://madie.cms.gov/Observation/4916919e-4d84-45b1-a1da-8316a3ff7293",
      "resource": {
        "resourceType": "Observation",
        "id": "4916919e-4d84-45b1-a1da-8316a3ff7293",
        "meta": {
          "profile": [
            "http://hl7.org/fhir/us/qicore/StructureDefinition/qicore-observation"
          ]
        },
        "status": "final",
        "category": [
          {
            "coding": [
              {
                "system": "http://terminology.hl7.org/CodeSystem/observation-category",
                "code": "exam",
                "display": "exam",
                "userSelected": true
              }
            ]
          }
        ],
        "code": {
          "coding": [
            {
              "system": "http://loinc.org",
              "code": "11778-8"
            }
          ]
        },
        "subject": {
          "reference": "Patient/b76f60da-f8a1-4ac5-a386-1d5cb8aa843a"
        },
        "effectiveDateTime": "2024-01-15T08:00:00.000+00:00",
        "valueDateTime": "2024-06-05T08:00:00.000+00:00"
      },
      "request": {
        "method": "PUT",
        "url": "Observation/4916919e-4d84-45b1-a1da-8316a3ff7293"
      }
    },
    {
      "fullUrl": "https://madie.cms.gov/Procedure/77350c17-acf1-4cac-b018-eb10aa621c5d",
      "resource": {
        "resourceType": "Procedure",
        "id": "77350c17-acf1-4cac-b018-eb10aa621c5d",
        "meta": {
          "profile": [
            "http://hl7.org/fhir/us/qicore/StructureDefinition/qicore-procedure"
          ]
        },
        "extension": [
          {
            "url": "http://hl7.org/fhir/us/qicore/StructureDefinition/qicore-recorded",
            "valueDateTime": "2013-04-05T09:35:00-04:00"
          }
        ],
        "status": "completed",
        "code": {
          "coding": [
            {
              "system": "http://snomed.info/sct",
              "code": "10745001"
            }
          ]
        },
        "subject": {
          "reference": "Patient/b76f60da-f8a1-4ac5-a386-1d5cb8aa843a"
        },
        "performedPeriod": {
          "start": "2024-01-01T08:00:00.000Z",
          "end": "2024-01-01T08:15:00.000Z"
        }
      },
      "request": {
        "method": "PUT",
        "url": "Procedure/77350c17-acf1-4cac-b018-eb10aa621c5d"
      }
    },
    {
      "fullUrl": "https://madie.cms.gov/Condition/3b8605aa-4504-4f4e-9466-ed65338aad6a",
      "resource": {
        "resourceType": "Condition",
        "id": "3b8605aa-4504-4f4e-9466-ed65338aad6a",
        "meta": {
          "profile": [
            "http://hl7.org/fhir/us/qicore/StructureDefinition/qicore-condition"
          ]
        },
        "category": [
          {
            "coding": [
              {
                "system": "http://terminology.hl7.org/CodeSystem/condition-category",
                "code": "encounter-diagnosis",
                "display": "Encounter Diagnosis"
              }
            ]
          }
        ],
        "code": {
          "coding": [
            {
              "system": "http://snomed.info/sct",
              "version": "2023-03",
              "code": "23464008",
              "display": "Gestation period, 20 weeks",
              "userSelected": true
            }
          ]
        },
        "subject": {
          "reference": "Patient/b76f60da-f8a1-4ac5-a386-1d5cb8aa843a"
        },
        "recordedDate": "2024-10-24T08:00:00.000+00:00"
      },
      "request": {
        "method": "PUT",
        "url": "Condition/3b8605aa-4504-4f4e-9466-ed65338aad6a"
      }
    },
    {
      "fullUrl": "https://madie.cms.gov/Coverage/aee30571-1865-4bbd-bce7-d7661ff7d00e",
      "resource": {
        "resourceType": "Coverage",
        "id": "aee30571-1865-4bbd-bce7-d7661ff7d00e",
        "meta": {
          "profile": [
            "http://hl7.org/fhir/us/qicore/StructureDefinition/qicore-coverage"
          ]
        },
        "status": "active",
        "beneficiary": {
          "reference": "Patient/b76f60da-f8a1-4ac5-a386-1d5cb8aa843a"
        },
        "payor": [
          {
            "reference": "Organization/c153f9b9-7119-414c-8fae-5fa26b85108f"
          }
        ]
      },
      "request": {
        "method": "PUT",
        "url": "Coverage/aee30571-1865-4bbd-bce7-d7661ff7d00e"
      }
    },
    {
      "fullUrl": "https://madie.cms.gov/Organization/c153f9b9-7119-414c-8fae-5fa26b85108f",
      "resource": {
        "resourceType": "Organization",
        "id": "c153f9b9-7119-414c-8fae-5fa26b85108f",
        "meta": {
          "profile": [
            "http://hl7.org/fhir/us/qicore/StructureDefinition/qicore-organization"
          ]
        },
        "identifier": [
          {
            "use": "temp",
            "system": "urn:oid:2.16.840.1.113883.4.4",
            "value": "21-3259825"
          }
        ],
        "active": true,
        "type": [
          {
            "coding": [
              {
                "system": "http://terminology.hl7.org/CodeSystem/organization-type",
                "code": "pay",
                "display": "Payer"
              }
            ]
          }
        ],
        "name": "Blue Cross Blue Shield of Texas",
        "telecom": [
          {
            "system": "phone",
            "value": "(+1) 972-766-6900"
          }
        ],
        "address": [
          {
            "use": "billing",
            "type": "postal",
            "line": [
              "P.O. Box 660044"
            ],
            "city": "Dallas",
            "state": "TX",
            "postalCode": "75266-0044",
            "country": "USA"
          }
        ]
      },
      "request": {
        "method": "PUT",
        "url": "Organization/c153f9b9-7119-414c-8fae-5fa26b85108f"
      }
    },
    {
      "fullUrl": "https://madie.cms.gov/Practitioner/a89c9757-0eb9-40cd-a17b-12eb192389b6",
      "resource": {
        "resourceType": "Practitioner",
        "id": "a89c9757-0eb9-40cd-a17b-12eb192389b6",
        "identifier": [
          {
            "system": "http://hl7.org/fhir/sid/us-npi",
            "value": "123456"
          }
        ],
        "name": [
          {
            "family": "Evil",
            "prefix": [
              "Dr"
            ]
          }
        ]
      },
      "request": {
        "method": "PUT",
        "url": "Practitioner/a89c9757-0eb9-40cd-a17b-12eb192389b6"
      }
    },
    {
      "fullUrl": "https://madie.cms.gov/MeasureReport/f171ab78-73f4-4609-97ff-8df951e710ca",
      "resource": {
        "resourceType": "MeasureReport",
        "id": "f171ab78-73f4-4609-97ff-8df951e710ca",
        "meta": {
          "profile": [
            "http://hl7.org/fhir/us/cqfmeasures/StructureDefinition/test-case-cqfm"
          ]
        },
        "contained": [
          {
            "resourceType": "Parameters",
            "id": "6e8b3b28-42be-4dee-866f-b56f4133da69-parameters",
            "parameter": [
              {
                "name": "subject",
                "valueString": "b76f60da-f8a1-4ac5-a386-1d5cb8aa843a"
              }
            ]
          }
        ],
        "extension": [
          {
            "url": "http://hl7.org/fhir/us/cqfmeasures/StructureDefinition/cqfm-inputParameters",
            "valueReference": {
              "reference": "#6e8b3b28-42be-4dee-866f-b56f4133da69-parameters"
            }
          },
          {
            "url": "http://hl7.org/fhir/us/cqfmeasures/StructureDefinition/cqfm-testCaseDescription",
            "valueMarkdown": "Calculated EGA = 19 weeks and 6 days.  Diagnosis code = 20 weeks.  Denom fails based on hierarchy."
          }
        ],
        "modifierExtension": [
          {
            "url": "http://hl7.org/fhir/us/cqfmeasures/StructureDefinition/cqfm-isTestCase",
            "valueBoolean": true
          }
        ],
        "status": "complete",
        "type": "individual",
        "measure": "https://madie.cms.gov/Measure/SevereObstetricComplicationsFHIR",
        "period": {
          "start": "2024-01-01",
          "end": "2024-12-31"
        },
        "group": [
          {
            "population": [
              {
                "code": {
                  "coding": [
                    {
                      "system": "http://terminology.hl7.org/CodeSystem/measure-population",
                      "code": "initial-population",
                      "display": "Initial Population"
                    }
                  ]
                },
                "count": 1
              },
              {
                "code": {
                  "coding": [
                    {
                      "system": "http://terminology.hl7.org/CodeSystem/measure-population",
                      "code": "denominator",
                      "display": "Denominator"
                    }
                  ]
                },
                "count": 0
              },
              {
                "code": {
                  "coding": [
                    {
                      "system": "http://terminology.hl7.org/CodeSystem/measure-population",
                      "code": "denominator-exclusion",
                      "display": "Denominator Exclusion"
                    }
                  ]
                },
                "count": 0
              },
              {
                "code": {
                  "coding": [
                    {
                      "system": "http://terminology.hl7.org/CodeSystem/measure-population",
                      "code": "numerator",
                      "display": "Numerator"
                    }
                  ]
                },
                "count": 0
              }
            ]
          }
        ],
        "evaluatedResource": [
          {
            "reference": "Patient/b76f60da-f8a1-4ac5-a386-1d5cb8aa843a"
          },
          {
            "reference": "Observation/5491f4b0-0190-4c59-a4a7-da9177a4a40b"
          },
          {
            "reference": "Encounter/7a1c55b6-a333-435e-8ecb-7b1305ccab92"
          },
          {
            "reference": "Observation/4916919e-4d84-45b1-a1da-8316a3ff7293"
          },
          {
            "reference": "Procedure/77350c17-acf1-4cac-b018-eb10aa621c5d"
          },
          {
            "reference": "Condition/3b8605aa-4504-4f4e-9466-ed65338aad6a"
          },
          {
            "reference": "Coverage/aee30571-1865-4bbd-bce7-d7661ff7d00e"
          },
          {
            "reference": "Organization/c153f9b9-7119-414c-8fae-5fa26b85108f"
          },
          {
            "reference": "Practitioner/a89c9757-0eb9-40cd-a17b-12eb192389b6"
          }
        ]
      },
      "request": {
        "method": "PUT",
        "url": "MeasureReport/f171ab78-73f4-4609-97ff-8df951e710ca"
      }
    }
  ]
}