{
  "resourceType": "Bundle",
  "id": "6129135302c62a011f2e7423",
  "type": "transaction",
  "entry": [
    {
      "fullUrl": "https://madie.cms.gov/Patient/3bb084eb-22c1-4449-9e09-9d6ebe65e1cf",
      "resource": {
        "resourceType": "Patient",
        "id": "3bb084eb-22c1-4449-9e09-9d6ebe65e1cf",
        "meta": {
          "profile": [
            "http://hl7.org/fhir/us/qicore/StructureDefinition/qicore-patient"
          ]
        },
        "text": {
          "status": "generated",
          "div": "<div xmlns=\"http://www.w3.org/1999/xhtml\"><div class=\"hapiHeaderText\">AntithromboticDuringIPTestOccur <b>NUMERPASS </b></div><table class=\"hapiPropertyTable\"><tbody><tr><td>Identifier</td><td>be14f222c0646cc5d7ac050774528f5e42a5a6df28c00c64454006e7ac2a1af3</td></tr><tr><td>Date of birth</td><td><span>31 May 1990</span></td></tr></tbody></table></div>"
        },
        "extension": [
          {
            "url": "http://hl7.org/fhir/us/core/StructureDefinition/us-core-race",
            "extension": [
              {
                "url": "ombCategory",
                "valueCoding": {
                  "system": "urn:oid:2.16.840.1.113883.6.238",
                  "code": "1002-5",
                  "display": "American Indian or Alaska Native",
                  "userSelected": true
                }
              },
              {
                "url": "text",
                "valueString": "American Indian or Alaska Native"
              }
            ]
          },
          {
            "url": "http://hl7.org/fhir/us/core/StructureDefinition/us-core-ethnicity",
            "extension": [
              {
                "url": "ombCategory",
                "valueCoding": {
                  "system": "urn:oid:2.16.840.1.113883.6.238",
                  "code": "2135-2",
                  "display": "Hispanic or Latino",
                  "userSelected": true
                }
              },
              {
                "url": "text",
                "valueString": "Hispanic or Latino"
              }
            ]
          }
        ],
        "identifier": [
          {
            "type": {
              "coding": [
                {
                  "system": "http://terminology.hl7.org/CodeSystem/v2-0203",
                  "code": "MR"
                }
              ]
            },
            "system": "https://bonnie-fhir.healthit.gov/",
            "value": "6129135302c62a011f2e7423"
          }
        ],
        "active": true,
        "name": [
          {
            "use": "usual",
            "family": "NUMERPass",
            "given": [
              "AntithromboticDuringIPTestOccur"
            ]
          }
        ],
        "gender": "male",
        "birthDate": "1990-05-31"
      },
      "request": {
        "method": "PUT",
        "url": "Patient/3bb084eb-22c1-4449-9e09-9d6ebe65e1cf"
      }
    },
    {
      "fullUrl": "https://madie.cms.gov/Encounter/5086479e-0054-429b-aa42-76999bafbc6b",
      "resource": {
        "resourceType": "Encounter",
        "id": "5086479e-0054-429b-aa42-76999bafbc6b",
        "meta": {
          "profile": [
            "http://hl7.org/fhir/us/qicore/StructureDefinition/qicore-encounter"
          ]
        },
        "status": "finished",
        "class": {
          "system": "http://terminology.hl7.org/CodeSystem/v3-ActCode",
          "code": "IMP",
          "display": "inpatient encounter",
          "userSelected": true
        },
        "type": [
          {
            "coding": [
              {
                "system": "http://snomed.info/sct",
                "code": "183452005"
              }
            ]
          }
        ],
        "subject": {
          "reference": "Patient/3bb084eb-22c1-4449-9e09-9d6ebe65e1cf"
        },
        "period": {
          "start": "2025-06-14T09:30:00.000+00:00",
          "end": "2025-06-14T10:30:00.000+00:00"
        },
        "length": {
          "value": 0,
          "unit": "days"
        }
      },
      "request": {
        "method": "PUT",
        "url": "Encounter/5086479e-0054-429b-aa42-76999bafbc6b"
      }
    },
    {
      "fullUrl": "https://madie.cms.gov/Encounter/0822b0a0-1db8-4538-982b-ec6181091d74",
      "resource": {
        "resourceType": "Encounter",
        "id": "0822b0a0-1db8-4538-982b-ec6181091d74",
        "meta": {
          "profile": [
            "http://hl7.org/fhir/us/qicore/StructureDefinition/qicore-encounter"
          ]
        },
        "status": "finished",
        "class": {
          "system": "http://terminology.hl7.org/CodeSystem/v3-ActCode",
          "code": "IMP",
          "display": "inpatient encounter",
          "userSelected": true
        },
        "type": [
          {
            "coding": [
              {
                "system": "http://snomed.info/sct",
                "code": "32485007"
              }
            ]
          }
        ],
        "subject": {
          "reference": "Patient/3bb084eb-22c1-4449-9e09-9d6ebe65e1cf"
        },
        "period": {
          "start": "2025-06-15T09:30:00.000+00:00",
          "end": "2025-10-12T10:30:00.000+00:00"
        },
        "length": {
          "value": 119,
          "unit": "days"
        },
        "diagnosis": [
          {
            "condition": {
              "reference": "Condition/a35bfc0c-5b08-47b7-8f41-122660051aea"
            },
            "use": {
              "coding": [
                {
                  "system": "http://terminology.hl7.org/CodeSystem/diagnosis-role",
                  "code": "billing",
                  "display": "Billing"
                }
              ]
            },
            "rank": 1
          }
        ]
      },
      "request": {
        "method": "PUT",
        "url": "Encounter/0822b0a0-1db8-4538-982b-ec6181091d74"
      }
    },
    {
      "fullUrl": "https://madie.cms.gov/MedicationRequest/994e0bf4-fe3d-468e-8151-6af338210b29",
      "resource": {
        "resourceType": "MedicationRequest",
        "id": "994e0bf4-fe3d-468e-8151-6af338210b29",
        "meta": {
          "profile": [
            "http://hl7.org/fhir/us/qicore/StructureDefinition/qicore-medicationrequest"
          ]
        },
        "status": "active",
        "intent": "order",
        "category": [
          {
            "coding": [
              {
                "system": "http://terminology.hl7.org/CodeSystem/medicationrequest-category",
                "code": "discharge",
                "display": "Discharge",
                "userSelected": true
              }
            ]
          }
        ],
        "medicationCodeableConcept": {
          "coding": [
            {
              "system": "http://www.nlm.nih.gov/research/umls/rxnorm",
              "code": "1037045"
            }
          ]
        },
        "subject": {
          "reference": "Patient/3bb084eb-22c1-4449-9e09-9d6ebe65e1cf"
        },
        "authoredOn": "2025-10-10T10:00:00.000+00:00",
        "requester": {
          "reference": "Practitioner/example"
        }
      },
      "request": {
        "method": "PUT",
        "url": "MedicationRequest/994e0bf4-fe3d-468e-8151-6af338210b29"
      }
    },
    {
      "fullUrl": "https://madie.cms.gov/Condition/cf52053b-22a7-46d2-b9ad-6dc56da0c25b",
      "resource": {
        "resourceType": "Condition",
        "id": "cf52053b-22a7-46d2-b9ad-6dc56da0c25b",
        "meta": {
          "profile": [
            "http://hl7.org/fhir/us/qicore/StructureDefinition/qicore-condition"
          ]
        },
        "clinicalStatus": {
          "coding": [
            {
              "system": "http://terminology.hl7.org/CodeSystem/condition-clinical",
              "code": "active"
            }
          ]
        },
        "verificationStatus": {
          "coding": [
            {
              "system": "http://terminology.hl7.org/CodeSystem/condition-ver-status",
              "code": "confirmed"
            }
          ]
        },
        "category": [
          {
            "coding": [
              {
                "system": "http://terminology.hl7.org/CodeSystem/condition-category",
                "code": "encounter-diagnosis",
                "display": "Encounter Diagnosis"
              }
            ]
          }
        ],
        "code": {
          "coding": [
            {
              "system": "http://snomed.info/sct",
              "version": "2020-09",
              "code": "111297002",
              "display": "Nonparalytic stroke (disorder)",
              "userSelected": true
            }
          ]
        },
        "subject": {
          "reference": "Patient/3bb084eb-22c1-4449-9e09-9d6ebe65e1cf"
        },
        "recordedDate": "2025-07-15T08:00:00.000+00:00"
      },
      "request": {
        "method": "PUT",
        "url": "Condition/cf52053b-22a7-46d2-b9ad-6dc56da0c25b"
      }
    },
    {
      "fullUrl": "https://madie.cms.gov/Condition/a35bfc0c-5b08-47b7-8f41-122660051aea",
      "resource": {
        "resourceType": "Condition",
        "id": "a35bfc0c-5b08-47b7-8f41-122660051aea",
        "meta": {
          "profile": [
            "http://hl7.org/fhir/us/qicore/StructureDefinition/qicore-condition"
          ]
        },
        "clinicalStatus": {
          "coding": [
            {
              "system": "http://terminology.hl7.org/CodeSystem/condition-clinical",
              "code": "active"
            }
          ]
        },
        "verificationStatus": {
          "coding": [
            {
              "system": "http://terminology.hl7.org/CodeSystem/condition-ver-status",
              "code": "confirmed"
            }
          ]
        },
        "category": [
          {
            "coding": [
              {
                "system": "http://terminology.hl7.org/CodeSystem/condition-category",
                "code": "encounter-diagnosis",
                "display": "Encounter Diagnosis"
              }
            ]
          }
        ],
        "code": {
          "coding": [
            {
              "system": "http://snomed.info/sct",
              "version": "2020-09",
              "code": "111297002",
              "display": "Nonparalytic stroke (disorder)",
              "userSelected": true
            }
          ]
        },
        "subject": {
          "reference": "Patient/3bb084eb-22c1-4449-9e09-9d6ebe65e1cf"
        },
        "recordedDate": "2025-07-15T08:00:00.000+00:00"
      },
      "request": {
        "method": "PUT",
        "url": "Condition/a35bfc0c-5b08-47b7-8f41-122660051aea"
      }
    },
    {
      "fullUrl": "https://madie.cms.gov/Coverage/58ddc5a4-d379-4579-a051-75a39ac60157",
      "resource": {
        "resourceType": "Coverage",
        "id": "58ddc5a4-d379-4579-a051-75a39ac60157",
        "meta": {
          "profile": [
            "http://hl7.org/fhir/us/qicore/StructureDefinition/qicore-coverage"
          ]
        },
        "status": "active",
        "beneficiary": {
          "reference": "Patient/3bb084eb-22c1-4449-9e09-9d6ebe65e1cf"
        },
        "payor": [
          {
            "reference": "Organization/f69c15cf-d936-4072-aa90-027ef47cba46"
          }
        ]
      },
      "request": {
        "method": "PUT",
        "url": "Coverage/58ddc5a4-d379-4579-a051-75a39ac60157"
      }
    },
    {
      "fullUrl": "https://madie.cms.gov/Organization/f69c15cf-d936-4072-aa90-027ef47cba46",
      "resource": {
        "resourceType": "Organization",
        "id": "f69c15cf-d936-4072-aa90-027ef47cba46",
        "meta": {
          "profile": [
            "http://hl7.org/fhir/us/qicore/StructureDefinition/qicore-organization"
          ]
        },
        "identifier": [
          {
            "use": "temp",
            "system": "urn:oid:2.16.840.1.113883.4.4",
            "value": "21-3259825"
          }
        ],
        "active": true,
        "type": [
          {
            "coding": [
              {
                "system": "http://terminology.hl7.org/CodeSystem/organization-type",
                "code": "pay",
                "display": "Payer"
              }
            ]
          }
        ],
        "name": "Blue Cross Blue Shield of Texas",
        "telecom": [
          {
            "system": "phone",
            "value": "(+1) 972-766-6900"
          }
        ],
        "address": [
          {
            "use": "billing",
            "type": "postal",
            "line": [
              "P.O. Box 660044"
            ],
            "city": "Dallas",
            "state": "TX",
            "postalCode": "75266-0044",
            "country": "USA"
          }
        ]
      },
      "request": {
        "method": "PUT",
        "url": "Organization/f69c15cf-d936-4072-aa90-027ef47cba46"
      }
    },
    {
      "fullUrl": "https://madie.cms.gov/MeasureReport/b8fba44b-287e-4a27-b690-3b3a434c8403",
      "resource": {
        "resourceType": "MeasureReport",
        "id": "b8fba44b-287e-4a27-b690-3b3a434c8403",
        "meta": {
          "profile": [
            "http://hl7.org/fhir/us/cqfmeasures/StructureDefinition/test-case-cqfm"
          ]
        },
        "contained": [
          {
            "resourceType": "Parameters",
            "id": "7992fe1a-592f-4dd9-af4d-b1d0eba4b322-parameters",
            "parameter": [
              {
                "name": "subject",
                "valueString": "3bb084eb-22c1-4449-9e09-9d6ebe65e1cf"
              }
            ]
          }
        ],
        "extension": [
          {
            "url": "http://hl7.org/fhir/us/cqfmeasures/StructureDefinition/cqfm-inputParameters",
            "valueReference": {
              "reference": "#7992fe1a-592f-4dd9-af4d-b1d0eba4b322-parameters"
            }
          },
          {
            "url": "http://hl7.org/fhir/us/cqfmeasures/StructureDefinition/cqfm-testCaseDescription",
            "valueMarkdown": "Patient is GT 18 with Non-Elective Inpatient Encounter (LOS 120 days) with principal diagnosis of ischemic stroke ends during MP received antithrombotic during IP encounter. testing 2 occurrences\n"
          }
        ],
        "modifierExtension": [
          {
            "url": "http://hl7.org/fhir/us/cqfmeasures/StructureDefinition/cqfm-isTestCase",
            "valueBoolean": true
          }
        ],
        "status": "complete",
        "type": "individual",
        "measure": "https://madie.cms.gov/Measure/DischargedonAntithromboticTherapyFHIR",
        "period": {
          "start": "2025-01-01",
          "end": "2025-12-31"
        },
        "group": [
          {
            "population": [
              {
                "code": {
                  "coding": [
                    {
                      "system": "http://terminology.hl7.org/CodeSystem/measure-population",
                      "code": "initial-population",
                      "display": "Initial Population"
                    }
                  ]
                },
                "count": 1
              },
              {
                "code": {
                  "coding": [
                    {
                      "system": "http://terminology.hl7.org/CodeSystem/measure-population",
                      "code": "denominator",
                      "display": "Denominator"
                    }
                  ]
                },
                "count": 1
              },
              {
                "code": {
                  "coding": [
                    {
                      "system": "http://terminology.hl7.org/CodeSystem/measure-population",
                      "code": "denominator-exclusion",
                      "display": "Denominator Exclusion"
                    }
                  ]
                },
                "count": 0
              },
              {
                "code": {
                  "coding": [
                    {
                      "system": "http://terminology.hl7.org/CodeSystem/measure-population",
                      "code": "numerator",
                      "display": "Numerator"
                    }
                  ]
                },
                "count": 1
              },
              {
                "code": {
                  "coding": [
                    {
                      "system": "http://terminology.hl7.org/CodeSystem/measure-population",
                      "code": "denominator-exception",
                      "display": "Denominator Exception"
                    }
                  ]
                },
                "count": 0
              }
            ]
          }
        ],
        "evaluatedResource": [
          {
            "reference": "Patient/3bb084eb-22c1-4449-9e09-9d6ebe65e1cf"
          },
          {
            "reference": "Encounter/5086479e-0054-429b-aa42-76999bafbc6b"
          },
          {
            "reference": "Encounter/0822b0a0-1db8-4538-982b-ec6181091d74"
          },
          {
            "reference": "MedicationRequest/994e0bf4-fe3d-468e-8151-6af338210b29"
          },
          {
            "reference": "Condition/cf52053b-22a7-46d2-b9ad-6dc56da0c25b"
          },
          {
            "reference": "Condition/a35bfc0c-5b08-47b7-8f41-122660051aea"
          },
          {
            "reference": "Coverage/58ddc5a4-d379-4579-a051-75a39ac60157"
          },
          {
            "reference": "Organization/f69c15cf-d936-4072-aa90-027ef47cba46"
          }
        ]
      },
      "request": {
        "method": "PUT",
        "url": "MeasureReport/b8fba44b-287e-4a27-b690-3b3a434c8403"
      }
    }
  ]
}