{
  "resourceType": "Bundle",
  "id": "635300f1224f3b0539671247",
  "type": "transaction",
  "entry": [
    {
      "fullUrl": "https://madie.cms.gov/Patient/fd2ddec4-fb4d-4dcf-aca8-6936b93be5cc",
      "resource": {
        "resourceType": "Patient",
        "id": "fd2ddec4-fb4d-4dcf-aca8-6936b93be5cc",
        "meta": {
          "profile": [
            "http://hl7.org/fhir/us/qicore/StructureDefinition/qicore-patient"
          ]
        },
        "extension": [
          {
            "url": "http://hl7.org/fhir/us/core/StructureDefinition/us-core-race",
            "extension": [
              {
                "url": "ombCategory",
                "valueCoding": {
                  "system": "urn:oid:2.16.840.1.113883.6.238",
                  "code": "1002-5",
                  "display": "American Indian or Alaska Native",
                  "userSelected": true
                }
              },
              {
                "url": "text",
                "valueString": "American Indian or Alaska Native"
              }
            ]
          },
          {
            "url": "http://hl7.org/fhir/us/core/StructureDefinition/us-core-ethnicity",
            "extension": [
              {
                "url": "ombCategory",
                "valueCoding": {
                  "system": "urn:oid:2.16.840.1.113883.6.238",
                  "code": "2135-2",
                  "display": "Hispanic or Latino",
                  "userSelected": true
                }
              },
              {
                "url": "text",
                "valueString": "Hispanic or Latino"
              }
            ]
          }
        ],
        "identifier": [
          {
            "type": {
              "coding": [
                {
                  "system": "http://terminology.hl7.org/CodeSystem/v2-0203",
                  "code": "MR"
                }
              ]
            },
            "system": "https://bonnie-fhir.healthit.gov/",
            "value": "635300f1224f3b0539671247"
          }
        ],
        "name": [
          {
            "family": "DENOMPass",
            "given": [
              "EDDDateOnly"
            ]
          }
        ],
        "gender": "female",
        "birthDate": "2004-02-01"
      },
      "request": {
        "method": "PUT",
        "url": "Patient/fd2ddec4-fb4d-4dcf-aca8-6936b93be5cc"
      }
    },
    {
      "fullUrl": "https://madie.cms.gov/Encounter/e8a4d4c0-ead3-4115-9277-cd570a5b6204",
      "resource": {
        "resourceType": "Encounter",
        "id": "e8a4d4c0-ead3-4115-9277-cd570a5b6204",
        "meta": {
          "profile": [
            "http://hl7.org/fhir/us/qicore/StructureDefinition/qicore-encounter"
          ]
        },
        "status": "finished",
        "class": {
          "system": "http://terminology.hl7.org/CodeSystem/v3-ActCode",
          "code": "IMP",
          "display": "inpatient encounter"
        },
        "type": [
          {
            "coding": [
              {
                "system": "http://snomed.info/sct",
                "version": "2022-09",
                "code": "183452005",
                "display": "Emergency hospital admission (procedure)",
                "userSelected": true
              }
            ]
          }
        ],
        "subject": {
          "reference": "Patient/fd2ddec4-fb4d-4dcf-aca8-6936b93be5cc"
        },
        "period": {
          "start": "2024-02-01T08:00:00.000+00:00",
          "end": "2024-02-05T08:15:00.000+00:00"
        }
      },
      "request": {
        "method": "PUT",
        "url": "Encounter/e8a4d4c0-ead3-4115-9277-cd570a5b6204"
      }
    },
    {
      "fullUrl": "https://madie.cms.gov/Procedure/a532c230-c677-412c-b61f-dbba41632701",
      "resource": {
        "resourceType": "Procedure",
        "id": "a532c230-c677-412c-b61f-dbba41632701",
        "meta": {
          "profile": [
            "http://hl7.org/fhir/us/qicore/StructureDefinition/qicore-procedure"
          ]
        },
        "extension": [
          {
            "url": "http://hl7.org/fhir/us/qicore/StructureDefinition/qicore-recorded",
            "valueDateTime": "2013-04-05T09:35:00-04:00"
          }
        ],
        "status": "completed",
        "code": {
          "coding": [
            {
              "system": "http://snomed.info/sct",
              "version": "2022-09",
              "code": "10745001",
              "display": "Delivery of transverse presentation (procedure)",
              "userSelected": true
            }
          ]
        },
        "subject": {
          "reference": "Patient/fd2ddec4-fb4d-4dcf-aca8-6936b93be5cc"
        },
        "performedPeriod": {
          "start": "2024-02-01T08:00:00.000+00:00",
          "end": "2024-02-05T08:15:00.000+00:00"
        }
      },
      "request": {
        "method": "PUT",
        "url": "Procedure/a532c230-c677-412c-b61f-dbba41632701"
      }
    },
    {
      "fullUrl": "https://madie.cms.gov/Observation/bea577ba-c707-40fa-8915-69ff9d01e0f7",
      "resource": {
        "resourceType": "Observation",
        "id": "bea577ba-c707-40fa-8915-69ff9d01e0f7",
        "meta": {
          "profile": [
            "http://hl7.org/fhir/us/qicore/StructureDefinition/qicore-observation"
          ]
        },
        "status": "final",
        "category": [
          {
            "coding": [
              {
                "system": "http://terminology.hl7.org/CodeSystem/observation-category",
                "code": "exam",
                "display": "exam",
                "userSelected": true
              }
            ]
          }
        ],
        "code": {
          "coding": [
            {
              "system": "http://loinc.org",
              "code": "93857-1",
              "display": "Date and time of obstetric delivery",
              "userSelected": true
            }
          ]
        },
        "subject": {
          "reference": "Patient/fd2ddec4-fb4d-4dcf-aca8-6936b93be5cc"
        },
        "effectiveDateTime": "2024-02-01T08:00:00.000+00:00",
        "valueDateTime": "2024-02-01T08:00:00.000+00:00"
      },
      "request": {
        "method": "PUT",
        "url": "Observation/bea577ba-c707-40fa-8915-69ff9d01e0f7"
      }
    },
    {
      "fullUrl": "https://madie.cms.gov/Observation/121fa7e6-cff2-4040-958b-753afcef8245",
      "resource": {
        "resourceType": "Observation",
        "id": "121fa7e6-cff2-4040-958b-753afcef8245",
        "meta": {
          "profile": [
            "http://hl7.org/fhir/us/qicore/StructureDefinition/qicore-observation"
          ]
        },
        "status": "final",
        "category": [
          {
            "coding": [
              {
                "system": "http://terminology.hl7.org/CodeSystem/observation-category",
                "code": "exam",
                "display": "exam",
                "userSelected": true
              }
            ]
          }
        ],
        "code": {
          "coding": [
            {
              "system": "http://loinc.org",
              "code": "11778-8",
              "display": "Delivery date Estimated",
              "userSelected": true
            }
          ]
        },
        "subject": {
          "reference": "Patient/fd2ddec4-fb4d-4dcf-aca8-6936b93be5cc"
        },
        "effectiveDateTime": "2024-01-31T08:00:00.000+00:00",
        "valueDateTime": "2024-01-31"
      },
      "request": {
        "method": "PUT",
        "url": "Observation/121fa7e6-cff2-4040-958b-753afcef8245"
      }
    },
    {
      "fullUrl": "https://madie.cms.gov/Coverage/62fb7905-1c5a-4216-846d-de2f7fb34dd5",
      "resource": {
        "resourceType": "Coverage",
        "id": "62fb7905-1c5a-4216-846d-de2f7fb34dd5",
        "meta": {
          "profile": [
            "http://hl7.org/fhir/us/qicore/StructureDefinition/qicore-coverage"
          ]
        },
        "status": "active",
        "beneficiary": {
          "reference": "Patient/fd2ddec4-fb4d-4dcf-aca8-6936b93be5cc"
        },
        "payor": [
          {
            "reference": "Organization/7110d7d6-2ddc-4e23-b66e-cfd466906533"
          }
        ]
      },
      "request": {
        "method": "PUT",
        "url": "Coverage/62fb7905-1c5a-4216-846d-de2f7fb34dd5"
      }
    },
    {
      "fullUrl": "https://madie.cms.gov/Organization/7110d7d6-2ddc-4e23-b66e-cfd466906533",
      "resource": {
        "resourceType": "Organization",
        "id": "7110d7d6-2ddc-4e23-b66e-cfd466906533",
        "meta": {
          "profile": [
            "http://hl7.org/fhir/us/qicore/StructureDefinition/qicore-organization"
          ]
        },
        "identifier": [
          {
            "use": "temp",
            "system": "urn:oid:2.16.840.1.113883.4.4",
            "value": "21-3259825"
          }
        ],
        "active": true,
        "type": [
          {
            "coding": [
              {
                "system": "http://terminology.hl7.org/CodeSystem/organization-type",
                "code": "pay",
                "display": "Payer"
              }
            ]
          }
        ],
        "name": "Blue Cross Blue Shield of Texas",
        "telecom": [
          {
            "system": "phone",
            "value": "(+1) 972-766-6900"
          }
        ],
        "address": [
          {
            "use": "billing",
            "type": "postal",
            "line": [
              "P.O. Box 660044"
            ],
            "city": "Dallas",
            "state": "TX",
            "postalCode": "75266-0044",
            "country": "USA"
          }
        ]
      },
      "request": {
        "method": "PUT",
        "url": "Organization/7110d7d6-2ddc-4e23-b66e-cfd466906533"
      }
    },
    {
      "fullUrl": "https://madie.cms.gov/Practitioner/cf1c0dcb-4731-463f-9860-3614e1ebab6d",
      "resource": {
        "resourceType": "Practitioner",
        "id": "cf1c0dcb-4731-463f-9860-3614e1ebab6d",
        "identifier": [
          {
            "system": "http://hl7.org/fhir/sid/us-npi",
            "value": "123456"
          }
        ],
        "name": [
          {
            "family": "Evil",
            "prefix": [
              "Dr"
            ]
          }
        ]
      },
      "request": {
        "method": "PUT",
        "url": "Practitioner/cf1c0dcb-4731-463f-9860-3614e1ebab6d"
      }
    },
    {
      "fullUrl": "https://madie.cms.gov/MeasureReport/d38f843f-fbff-42e3-b8b7-de60135258f4",
      "resource": {
        "resourceType": "MeasureReport",
        "id": "d38f843f-fbff-42e3-b8b7-de60135258f4",
        "meta": {
          "profile": [
            "http://hl7.org/fhir/us/cqfmeasures/StructureDefinition/test-case-cqfm"
          ]
        },
        "contained": [
          {
            "resourceType": "Parameters",
            "id": "145c170a-76b3-464a-b05c-4b8a160ddd4c-parameters",
            "parameter": [
              {
                "name": "subject",
                "valueString": "fd2ddec4-fb4d-4dcf-aca8-6936b93be5cc"
              }
            ]
          }
        ],
        "extension": [
          {
            "url": "http://hl7.org/fhir/us/cqfmeasures/StructureDefinition/cqfm-inputParameters",
            "valueReference": {
              "reference": "#145c170a-76b3-464a-b05c-4b8a160ddd4c-parameters"
            }
          },
          {
            "url": "http://hl7.org/fhir/us/cqfmeasures/StructureDefinition/cqfm-testCaseDescription",
            "valueMarkdown": "Last assessment Performed, Estimated Delivery Date, Relevant time, 24 hours 1 min before Delivery Result Date/Time.  EDD has date only\n"
          }
        ],
        "modifierExtension": [
          {
            "url": "http://hl7.org/fhir/us/cqfmeasures/StructureDefinition/cqfm-isTestCase",
            "valueBoolean": true
          }
        ],
        "status": "complete",
        "type": "individual",
        "measure": "https://madie.cms.gov/Measure/SevereObstetricComplicationsFHIR",
        "period": {
          "start": "2024-01-01",
          "end": "2024-12-31"
        },
        "group": [
          {
            "population": [
              {
                "code": {
                  "coding": [
                    {
                      "system": "http://terminology.hl7.org/CodeSystem/measure-population",
                      "code": "initial-population",
                      "display": "Initial Population"
                    }
                  ]
                },
                "count": 1
              },
              {
                "code": {
                  "coding": [
                    {
                      "system": "http://terminology.hl7.org/CodeSystem/measure-population",
                      "code": "denominator",
                      "display": "Denominator"
                    }
                  ]
                },
                "count": 1
              },
              {
                "code": {
                  "coding": [
                    {
                      "system": "http://terminology.hl7.org/CodeSystem/measure-population",
                      "code": "denominator-exclusion",
                      "display": "Denominator Exclusion"
                    }
                  ]
                },
                "count": 0
              },
              {
                "code": {
                  "coding": [
                    {
                      "system": "http://terminology.hl7.org/CodeSystem/measure-population",
                      "code": "numerator",
                      "display": "Numerator"
                    }
                  ]
                },
                "count": 0
              }
            ]
          }
        ],
        "evaluatedResource": [
          {
            "reference": "Patient/fd2ddec4-fb4d-4dcf-aca8-6936b93be5cc"
          },
          {
            "reference": "Encounter/e8a4d4c0-ead3-4115-9277-cd570a5b6204"
          },
          {
            "reference": "Procedure/a532c230-c677-412c-b61f-dbba41632701"
          },
          {
            "reference": "Observation/bea577ba-c707-40fa-8915-69ff9d01e0f7"
          },
          {
            "reference": "Observation/121fa7e6-cff2-4040-958b-753afcef8245"
          },
          {
            "reference": "Coverage/62fb7905-1c5a-4216-846d-de2f7fb34dd5"
          },
          {
            "reference": "Organization/7110d7d6-2ddc-4e23-b66e-cfd466906533"
          },
          {
            "reference": "Practitioner/cf1c0dcb-4731-463f-9860-3614e1ebab6d"
          }
        ]
      },
      "request": {
        "method": "PUT",
        "url": "MeasureReport/d38f843f-fbff-42e3-b8b7-de60135258f4"
      }
    }
  ]
}