{
  "resourceType": "Bundle",
  "id": "363b28a9-e77d-4fee-aaaf-73ebb35bc57c",
  "type": "transaction",
  "entry": [
    {
      "fullUrl": "https://madie.cms.gov/Patient/9ea97771-7074-4912-a628-c2e70e8440cc",
      "resource": {
        "resourceType": "Patient",
        "id": "9ea97771-7074-4912-a628-c2e70e8440cc",
        "meta": {
          "profile": [
            "http://hl7.org/fhir/us/qicore/StructureDefinition/qicore-patient"
          ]
        },
        "extension": [
          {
            "url": "http://hl7.org/fhir/us/core/StructureDefinition/us-core-race",
            "extension": [
              {
                "url": "ombCategory",
                "valueCoding": {
                  "system": "urn:oid:2.16.840.1.113883.6.238",
                  "code": "2106-3",
                  "display": "White"
                }
              },
              {
                "url": "text",
                "valueString": "White"
              }
            ]
          },
          {
            "url": "http://hl7.org/fhir/us/core/StructureDefinition/us-core-ethnicity",
            "extension": [
              {
                "url": "ombCategory",
                "valueCoding": {
                  "system": "urn:oid:2.16.840.1.113883.6.238",
                  "code": "2135-2",
                  "display": "Hispanic or Latino"
                }
              },
              {
                "url": "text",
                "valueString": "Hispanic or Latino"
              }
            ]
          }
        ],
        "identifier": [
          {
            "system": "http://hospital.smarthealthit.org",
            "value": "999999999"
          }
        ],
        "name": [
          {
            "family": "Example",
            "given": [
              "Patient"
            ]
          }
        ],
        "gender": "female",
        "birthDate": "1970-01-01"
      },
      "request": {
        "method": "PUT",
        "url": "Patient/9ea97771-7074-4912-a628-c2e70e8440cc"
      }
    },
    {
      "fullUrl": "https://madie.cms.gov/Coverage/018ef9b6-2a61-4042-910f-ac66749bef6b",
      "resource": {
        "resourceType": "Coverage",
        "id": "018ef9b6-2a61-4042-910f-ac66749bef6b",
        "meta": {
          "profile": [
            "http://hl7.org/fhir/us/qicore/StructureDefinition/qicore-coverage"
          ]
        },
        "identifier": [
          {
            "system": "http://benefitsinc.com/certificate",
            "value": "12345"
          }
        ],
        "status": "active",
        "type": {
          "coding": [
            {
              "system": "https://nahdo.org/sopt",
              "code": "59",
              "display": "Other Private Insurance"
            }
          ]
        },
        "policyHolder": {
          "reference": "Patient/9ea97771-7074-4912-a628-c2e70e8440cc"
        },
        "subscriber": {
          "reference": "Patient/9ea97771-7074-4912-a628-c2e70e8440cc"
        },
        "beneficiary": {
          "reference": "Patient/9ea97771-7074-4912-a628-c2e70e8440cc"
        },
        "dependent": "0",
        "relationship": {
          "coding": [
            {
              "system": "http://terminology.hl7.org/CodeSystem/subscriber-relationship",
              "code": "self"
            }
          ]
        },
        "period": {
          "start": "2025-01-01T06:00:00.000Z",
          "end": "2025-12-31T11:06:01.000Z"
        },
        "payor": [
          {
            "reference": "Organization/Organization-2"
          }
        ],
        "order": 9
      },
      "request": {
        "method": "PUT",
        "url": "Coverage/018ef9b6-2a61-4042-910f-ac66749bef6b"
      }
    },
    {
      "fullUrl": "https://madie.cms.gov/Encounter/d96d0ed6-5cb4-4a6f-8cfc-915037b0e548",
      "resource": {
        "resourceType": "Encounter",
        "id": "d96d0ed6-5cb4-4a6f-8cfc-915037b0e548",
        "meta": {
          "profile": [
            "http://hl7.org/fhir/us/qicore/StructureDefinition/qicore-encounter"
          ]
        },
        "status": "finished",
        "class": {
          "system": "http://terminology.hl7.org/CodeSystem/v3-ActCode",
          "code": "IMP",
          "display": "inpatient encounter"
        },
        "type": [
          {
            "coding": [
              {
                "system": "http://snomed.info/sct",
                "code": "183452005"
              }
            ]
          }
        ],
        "subject": {
          "reference": "Patient/9ea97771-7074-4912-a628-c2e70e8440cc"
        },
        "period": {
          "start": "2025-04-07T08:00:00.000Z",
          "end": "2025-04-11T08:15:00.000Z"
        }
      },
      "request": {
        "method": "PUT",
        "url": "Encounter/d96d0ed6-5cb4-4a6f-8cfc-915037b0e548"
      }
    },
    {
      "fullUrl": "https://madie.cms.gov/MeasureReport/37cb590b-7b21-45eb-95bd-eaa0b8cc4cec",
      "resource": {
        "resourceType": "MeasureReport",
        "id": "37cb590b-7b21-45eb-95bd-eaa0b8cc4cec",
        "meta": {
          "profile": [
            "http://hl7.org/fhir/us/cqfmeasures/StructureDefinition/test-case-cqfm"
          ]
        },
        "contained": [
          {
            "resourceType": "Parameters",
            "id": "3283ba22-7f02-4239-ab61-e2556ede4151-parameters",
            "parameter": [
              {
                "name": "subject",
                "valueString": "9ea97771-7074-4912-a628-c2e70e8440cc"
              }
            ]
          }
        ],
        "extension": [
          {
            "url": "http://hl7.org/fhir/us/cqfmeasures/StructureDefinition/cqfm-inputParameters",
            "valueReference": {
              "reference": "#3283ba22-7f02-4239-ab61-e2556ede4151-parameters"
            }
          },
          {
            "url": "http://hl7.org/fhir/us/cqfmeasures/StructureDefinition/cqfm-testCaseDescription",
            "valueMarkdown": "Inpatient hospitalization for patient >=18 but no diabetes diagnosis, no hypoglycemic medication, and no glucose lab >40 mg/dL. Must meet at least one to meet IPP. IPP fails"
          }
        ],
        "modifierExtension": [
          {
            "url": "http://hl7.org/fhir/us/cqfmeasures/StructureDefinition/cqfm-isTestCase",
            "valueBoolean": true
          }
        ],
        "status": "complete",
        "type": "individual",
        "measure": "https://madie.cms.gov/Measure/HospitalHarmHyperglycemiainHospitalizedPatientsFHIR",
        "period": {
          "start": "2025-01-01",
          "end": "2025-12-31"
        },
        "group": [
          {
            "population": [
              {
                "code": {
                  "coding": [
                    {
                      "system": "http://terminology.hl7.org/CodeSystem/measure-population",
                      "code": "initial-population",
                      "display": "Initial Population"
                    }
                  ]
                },
                "count": 0
              },
              {
                "code": {
                  "coding": [
                    {
                      "system": "http://terminology.hl7.org/CodeSystem/measure-population",
                      "code": "denominator",
                      "display": "Denominator"
                    }
                  ]
                },
                "count": 0
              },
              {
                "code": {
                  "coding": [
                    {
                      "system": "http://terminology.hl7.org/CodeSystem/measure-population",
                      "code": "denominator-exclusion",
                      "display": "Denominator Exclusion"
                    }
                  ]
                },
                "count": 0
              },
              {
                "code": {
                  "coding": [
                    {
                      "system": "http://terminology.hl7.org/CodeSystem/measure-population",
                      "code": "numerator",
                      "display": "Numerator"
                    }
                  ]
                },
                "count": 0
              }
            ]
          }
        ],
        "evaluatedResource": [
          {
            "reference": "Patient/9ea97771-7074-4912-a628-c2e70e8440cc"
          },
          {
            "reference": "Coverage/018ef9b6-2a61-4042-910f-ac66749bef6b"
          },
          {
            "reference": "Encounter/d96d0ed6-5cb4-4a6f-8cfc-915037b0e548"
          }
        ]
      },
      "request": {
        "method": "PUT",
        "url": "MeasureReport/37cb590b-7b21-45eb-95bd-eaa0b8cc4cec"
      }
    }
  ]
}