{
  "resourceType": "Bundle",
  "id": "6359776b6aee9629c8298235",
  "type": "transaction",
  "entry": [
    {
      "fullUrl": "https://madie.cms.gov/Patient/8bc857fc-80f5-44f1-a1b8-15ba5bf9d3e1",
      "resource": {
        "resourceType": "Patient",
        "id": "8bc857fc-80f5-44f1-a1b8-15ba5bf9d3e1",
        "meta": {
          "profile": [
            "http://hl7.org/fhir/us/qicore/StructureDefinition/qicore-patient"
          ]
        },
        "text": {
          "status": "generated",
          "div": "<div xmlns=\"http://www.w3.org/1999/xhtml\"><div class=\"hapiHeaderText\">WBCRsltDtTimeEQDelStartless1Min <b>RISKPass </b></div><table class=\"hapiPropertyTable\"><tbody><tr><td>Date of birth</td><td><span>01 February 2004</span></td></tr></tbody></table></div>"
        },
        "extension": [
          {
            "url": "http://hl7.org/fhir/us/core/StructureDefinition/us-core-race",
            "extension": [
              {
                "url": "ombCategory",
                "valueCoding": {
                  "system": "urn:oid:2.16.840.1.113883.6.238",
                  "code": "1002-5",
                  "display": "American Indian or Alaska Native",
                  "userSelected": true
                }
              },
              {
                "url": "text",
                "valueString": "American Indian or Alaska Native"
              }
            ]
          },
          {
            "url": "http://hl7.org/fhir/us/core/StructureDefinition/us-core-ethnicity",
            "extension": [
              {
                "url": "ombCategory",
                "valueCoding": {
                  "system": "urn:oid:2.16.840.1.113883.6.238",
                  "code": "2135-2",
                  "display": "Hispanic or Latino",
                  "userSelected": true
                }
              },
              {
                "url": "text",
                "valueString": "Hispanic or Latino"
              }
            ]
          }
        ],
        "identifier": [
          {
            "type": {
              "coding": [
                {
                  "system": "http://terminology.hl7.org/CodeSystem/v2-0203",
                  "code": "MR"
                }
              ]
            },
            "system": "https://bonnie-fhir.healthit.gov/",
            "value": "6359776b6aee9629c8298235"
          }
        ],
        "active": true,
        "name": [
          {
            "use": "usual",
            "family": "RiskPassWBC",
            "given": [
              "WBCRsltDtTimeEQDelStartless1Min"
            ]
          }
        ],
        "gender": "female",
        "birthDate": "2004-02-01"
      },
      "request": {
        "method": "PUT",
        "url": "Patient/8bc857fc-80f5-44f1-a1b8-15ba5bf9d3e1"
      }
    },
    {
      "fullUrl": "https://madie.cms.gov/Observation/46c29eae-299b-4745-a237-f64f2e18b413",
      "resource": {
        "resourceType": "Observation",
        "id": "46c29eae-299b-4745-a237-f64f2e18b413",
        "meta": {
          "profile": [
            "http://hl7.org/fhir/us/qicore/StructureDefinition/qicore-observation"
          ]
        },
        "status": "final",
        "category": [
          {
            "coding": [
              {
                "system": "http://terminology.hl7.org/CodeSystem/observation-category",
                "code": "exam",
                "display": "exam",
                "userSelected": true
              }
            ]
          }
        ],
        "code": {
          "coding": [
            {
              "system": "http://loinc.org",
              "code": "93857-1"
            }
          ]
        },
        "subject": {
          "reference": "Patient/8bc857fc-80f5-44f1-a1b8-15ba5bf9d3e1"
        },
        "effectiveDateTime": "2024-02-01T08:00:00.000+00:00",
        "valueDateTime": "2024-02-01T08:00:00+00:00"
      },
      "request": {
        "method": "PUT",
        "url": "Observation/46c29eae-299b-4745-a237-f64f2e18b413"
      }
    },
    {
      "fullUrl": "https://madie.cms.gov/Observation/5548cd6a-6ab7-4fd1-904c-4cd27f69c74e",
      "resource": {
        "resourceType": "Observation",
        "id": "5548cd6a-6ab7-4fd1-904c-4cd27f69c74e",
        "meta": {
          "profile": [
            "http://hl7.org/fhir/us/qicore/StructureDefinition/qicore-observation"
          ]
        },
        "status": "final",
        "category": [
          {
            "coding": [
              {
                "system": "http://terminology.hl7.org/CodeSystem/observation-category",
                "code": "exam",
                "display": "exam",
                "userSelected": true
              }
            ]
          }
        ],
        "code": {
          "coding": [
            {
              "system": "http://loinc.org",
              "code": "11884-4"
            }
          ]
        },
        "subject": {
          "reference": "Patient/8bc857fc-80f5-44f1-a1b8-15ba5bf9d3e1"
        },
        "effectiveDateTime": "2024-02-01T08:00:00.000+00:00",
        "valueQuantity": {
          "value": 21,
          "system": "http://unitsofmeasure.org",
          "code": "wk"
        }
      },
      "request": {
        "method": "PUT",
        "url": "Observation/5548cd6a-6ab7-4fd1-904c-4cd27f69c74e"
      }
    },
    {
      "fullUrl": "https://madie.cms.gov/Encounter/2dc9b849-7450-4a24-95b4-16e8ee545b55",
      "resource": {
        "resourceType": "Encounter",
        "id": "2dc9b849-7450-4a24-95b4-16e8ee545b55",
        "meta": {
          "profile": [
            "http://hl7.org/fhir/us/qicore/StructureDefinition/qicore-encounter"
          ]
        },
        "status": "finished",
        "class": {
          "system": "http://terminology.hl7.org/CodeSystem/v3-ActCode",
          "code": "IMP",
          "display": "inpatient encounter"
        },
        "type": [
          {
            "coding": [
              {
                "system": "http://snomed.info/sct",
                "code": "183452005"
              }
            ]
          }
        ],
        "subject": {
          "reference": "Patient/8bc857fc-80f5-44f1-a1b8-15ba5bf9d3e1"
        },
        "period": {
          "start": "2024-02-01T08:00:00.000Z",
          "end": "2024-02-05T08:15:00.000Z"
        }
      },
      "request": {
        "method": "PUT",
        "url": "Encounter/2dc9b849-7450-4a24-95b4-16e8ee545b55"
      }
    },
    {
      "fullUrl": "https://madie.cms.gov/Encounter/75927685-35ba-419f-b372-e12cf06ea167",
      "resource": {
        "resourceType": "Encounter",
        "id": "75927685-35ba-419f-b372-e12cf06ea167",
        "meta": {
          "profile": [
            "http://hl7.org/fhir/us/qicore/StructureDefinition/qicore-encounter"
          ]
        },
        "status": "finished",
        "class": {
          "system": "http://terminology.hl7.org/CodeSystem/v3-ActCode",
          "code": "EMER",
          "display": "emergency"
        },
        "type": [
          {
            "coding": [
              {
                "system": "http://snomed.info/sct",
                "code": "4525004"
              }
            ]
          }
        ],
        "subject": {
          "reference": "Patient/8bc857fc-80f5-44f1-a1b8-15ba5bf9d3e1"
        },
        "period": {
          "start": "2024-02-01T07:00:00.000Z",
          "end": "2024-02-01T07:59:00.000Z"
        }
      },
      "request": {
        "method": "PUT",
        "url": "Encounter/75927685-35ba-419f-b372-e12cf06ea167"
      }
    },
    {
      "fullUrl": "https://madie.cms.gov/Procedure/ff23c13e-9cfd-4e5f-a9d4-b670f77db238",
      "resource": {
        "resourceType": "Procedure",
        "id": "ff23c13e-9cfd-4e5f-a9d4-b670f77db238",
        "meta": {
          "profile": [
            "http://hl7.org/fhir/us/qicore/StructureDefinition/qicore-procedure"
          ]
        },
        "extension": [
          {
            "url": "http://hl7.org/fhir/us/qicore/StructureDefinition/qicore-recorded",
            "valueDateTime": "2024-02-04T09:35:00-04:00"
          }
        ],
        "status": "completed",
        "code": {
          "coding": [
            {
              "system": "http://snomed.info/sct",
              "code": "10745001"
            }
          ]
        },
        "subject": {
          "reference": "Patient/8bc857fc-80f5-44f1-a1b8-15ba5bf9d3e1"
        },
        "performedPeriod": {
          "start": "2024-02-01T08:00:00.000Z",
          "end": "2024-02-05T08:15:00.000Z"
        }
      },
      "request": {
        "method": "PUT",
        "url": "Procedure/ff23c13e-9cfd-4e5f-a9d4-b670f77db238"
      }
    },
    {
      "fullUrl": "https://madie.cms.gov/Observation/322c0113-4c9f-42f3-9c27-cd0526cb9622",
      "resource": {
        "resourceType": "Observation",
        "id": "322c0113-4c9f-42f3-9c27-cd0526cb9622",
        "meta": {
          "profile": [
            "http://hl7.org/fhir/us/core/StructureDefinition/us-core-observation-lab"
          ]
        },
        "status": "final",
        "category": [
          {
            "coding": [
              {
                "system": "http://terminology.hl7.org/CodeSystem/observation-category",
                "code": "laboratory",
                "display": "laboratory",
                "userSelected": true
              }
            ]
          }
        ],
        "code": {
          "coding": [
            {
              "system": "http://loinc.org",
              "version": "2.73",
              "code": "26464-8",
              "display": "Leukocytes [#/volume] in Blood",
              "userSelected": true
            }
          ]
        },
        "subject": {
          "reference": "Patient/8bc857fc-80f5-44f1-a1b8-15ba5bf9d3e1"
        },
        "effectiveDateTime": "2024-02-01T07:59:00.000+00:00",
        "issued": "2024-02-01T07:59:00.000+00:00",
        "valueQuantity": {
          "value": 20,
          "unit": "10*3/u"
        }
      },
      "request": {
        "method": "PUT",
        "url": "Observation/322c0113-4c9f-42f3-9c27-cd0526cb9622"
      }
    },
    {
      "fullUrl": "https://madie.cms.gov/MeasureReport/d1003e3d-be6b-4e31-9dfb-4a1acc29d4c6",
      "resource": {
        "resourceType": "MeasureReport",
        "id": "d1003e3d-be6b-4e31-9dfb-4a1acc29d4c6",
        "meta": {
          "profile": [
            "http://hl7.org/fhir/us/cqfmeasures/StructureDefinition/test-case-cqfm"
          ]
        },
        "contained": [
          {
            "resourceType": "Parameters",
            "id": "e75c6563-59fd-42ea-91fa-a6783a25a9ba-parameters",
            "parameter": [
              {
                "name": "subject",
                "valueString": "8bc857fc-80f5-44f1-a1b8-15ba5bf9d3e1"
              }
            ]
          }
        ],
        "extension": [
          {
            "url": "http://hl7.org/fhir/us/cqfmeasures/StructureDefinition/cqfm-inputParameters",
            "valueReference": {
              "reference": "#e75c6563-59fd-42ea-91fa-a6783a25a9ba-parameters"
            }
          },
          {
            "url": "http://hl7.org/fhir/us/cqfmeasures/StructureDefinition/cqfm-testCaseDescription",
            "valueMarkdown": "Patient with WBC result date/time = delivery date/time minus 1 minute\n"
          }
        ],
        "modifierExtension": [
          {
            "url": "http://hl7.org/fhir/us/cqfmeasures/StructureDefinition/cqfm-isTestCase",
            "valueBoolean": true
          }
        ],
        "status": "complete",
        "type": "individual",
        "measure": "https://madie.cms.gov/Measure/SevereObstetricComplicationsFHIR",
        "period": {
          "start": "2024-01-01",
          "end": "2024-12-31"
        },
        "group": [
          {
            "population": [
              {
                "code": {
                  "coding": [
                    {
                      "system": "http://terminology.hl7.org/CodeSystem/measure-population",
                      "code": "initial-population",
                      "display": "Initial Population"
                    }
                  ]
                },
                "count": 1
              },
              {
                "code": {
                  "coding": [
                    {
                      "system": "http://terminology.hl7.org/CodeSystem/measure-population",
                      "code": "denominator",
                      "display": "Denominator"
                    }
                  ]
                },
                "count": 1
              },
              {
                "code": {
                  "coding": [
                    {
                      "system": "http://terminology.hl7.org/CodeSystem/measure-population",
                      "code": "denominator-exclusion",
                      "display": "Denominator Exclusion"
                    }
                  ]
                },
                "count": 0
              },
              {
                "code": {
                  "coding": [
                    {
                      "system": "http://terminology.hl7.org/CodeSystem/measure-population",
                      "code": "numerator",
                      "display": "Numerator"
                    }
                  ]
                },
                "count": 0
              }
            ]
          }
        ],
        "evaluatedResource": [
          {
            "reference": "Patient/8bc857fc-80f5-44f1-a1b8-15ba5bf9d3e1"
          },
          {
            "reference": "Observation/46c29eae-299b-4745-a237-f64f2e18b413"
          },
          {
            "reference": "Observation/5548cd6a-6ab7-4fd1-904c-4cd27f69c74e"
          },
          {
            "reference": "Encounter/2dc9b849-7450-4a24-95b4-16e8ee545b55"
          },
          {
            "reference": "Encounter/75927685-35ba-419f-b372-e12cf06ea167"
          },
          {
            "reference": "Procedure/ff23c13e-9cfd-4e5f-a9d4-b670f77db238"
          },
          {
            "reference": "Observation/322c0113-4c9f-42f3-9c27-cd0526cb9622"
          }
        ]
      },
      "request": {
        "method": "PUT",
        "url": "MeasureReport/d1003e3d-be6b-4e31-9dfb-4a1acc29d4c6"
      }
    }
  ]
}