{
  "resourceType": "Bundle",
  "id": "633b3fa00968f80122503d14",
  "type": "transaction",
  "entry": [
    {
      "fullUrl": "https://madie.cms.gov/Patient/488e4639-8f34-47f7-a089-66111fc00451",
      "resource": {
        "resourceType": "Patient",
        "id": "488e4639-8f34-47f7-a089-66111fc00451",
        "meta": {
          "profile": [
            "http://hl7.org/fhir/us/qicore/StructureDefinition/qicore-patient"
          ]
        },
        "text": {
          "status": "generated",
          "div": "<div xmlns=\"http://www.w3.org/1999/xhtml\"><div class=\"hapiHeaderText\">DelProcRelDtTmEQEDEnd <b>IPPASS </b></div><table class=\"hapiPropertyTable\"><tbody><tr><td>Date of birth</td><td><span>31 January 2004</span></td></tr></tbody></table></div>"
        },
        "extension": [
          {
            "url": "http://hl7.org/fhir/us/core/StructureDefinition/us-core-race",
            "extension": [
              {
                "url": "ombCategory",
                "valueCoding": {
                  "system": "urn:oid:2.16.840.1.113883.6.238",
                  "code": "1002-5",
                  "display": "American Indian or Alaska Native",
                  "userSelected": true
                }
              },
              {
                "url": "text",
                "valueString": "American Indian or Alaska Native"
              }
            ]
          },
          {
            "url": "http://hl7.org/fhir/us/core/StructureDefinition/us-core-ethnicity",
            "extension": [
              {
                "url": "ombCategory",
                "valueCoding": {
                  "system": "urn:oid:2.16.840.1.113883.6.238",
                  "code": "2135-2",
                  "display": "Hispanic or Latino",
                  "userSelected": true
                }
              },
              {
                "url": "text",
                "valueString": "Hispanic or Latino"
              }
            ]
          }
        ],
        "identifier": [
          {
            "type": {
              "coding": [
                {
                  "system": "http://terminology.hl7.org/CodeSystem/v2-0203",
                  "code": "MR"
                }
              ]
            },
            "system": "https://bonnie-fhir.healthit.gov/",
            "value": "633b3fa00968f80122503d14"
          }
        ],
        "active": true,
        "name": [
          {
            "use": "usual",
            "family": "IPPass",
            "given": [
              "DelProcRelDtTmEQEDEnd"
            ]
          }
        ],
        "gender": "female",
        "birthDate": "2004-01-31"
      },
      "request": {
        "method": "PUT",
        "url": "Patient/488e4639-8f34-47f7-a089-66111fc00451"
      }
    },
    {
      "fullUrl": "https://madie.cms.gov/Encounter/95c2bcd3-bde0-4c37-aae1-f4c91068d514",
      "resource": {
        "resourceType": "Encounter",
        "id": "95c2bcd3-bde0-4c37-aae1-f4c91068d514",
        "meta": {
          "profile": [
            "http://hl7.org/fhir/us/qicore/StructureDefinition/qicore-encounter"
          ]
        },
        "status": "finished",
        "class": {
          "system": "http://terminology.hl7.org/CodeSystem/v3-ActCode",
          "code": "IMP",
          "display": "inpatient encounter"
        },
        "type": [
          {
            "coding": [
              {
                "system": "http://snomed.info/sct",
                "code": "183452005"
              }
            ]
          }
        ],
        "subject": {
          "reference": "Patient/488e4639-8f34-47f7-a089-66111fc00451"
        },
        "period": {
          "start": "2024-02-01T09:00:00.000Z",
          "end": "2024-02-05T08:15:00.000Z"
        }
      },
      "request": {
        "method": "PUT",
        "url": "Encounter/95c2bcd3-bde0-4c37-aae1-f4c91068d514"
      }
    },
    {
      "fullUrl": "https://madie.cms.gov/Encounter/3fe11eed-cce4-42b9-9e8b-c05201f949a3",
      "resource": {
        "resourceType": "Encounter",
        "id": "3fe11eed-cce4-42b9-9e8b-c05201f949a3",
        "meta": {
          "profile": [
            "http://hl7.org/fhir/us/qicore/StructureDefinition/qicore-encounter"
          ]
        },
        "status": "finished",
        "class": {
          "system": "http://terminology.hl7.org/CodeSystem/v3-ActCode",
          "code": "IMP",
          "display": "inpatient encounter"
        },
        "type": [
          {
            "coding": [
              {
                "system": "http://snomed.info/sct",
                "code": "448951000124107"
              }
            ]
          }
        ],
        "subject": {
          "reference": "Patient/488e4639-8f34-47f7-a089-66111fc00451"
        },
        "period": {
          "start": "2024-02-01T08:00:00.000Z",
          "end": "2024-02-01T08:59:00.000Z"
        }
      },
      "request": {
        "method": "PUT",
        "url": "Encounter/3fe11eed-cce4-42b9-9e8b-c05201f949a3"
      }
    },
    {
      "fullUrl": "https://madie.cms.gov/Encounter/156d3ab4-b7e0-4d41-b622-67464cd46683",
      "resource": {
        "resourceType": "Encounter",
        "id": "156d3ab4-b7e0-4d41-b622-67464cd46683",
        "meta": {
          "profile": [
            "http://hl7.org/fhir/us/qicore/StructureDefinition/qicore-encounter"
          ]
        },
        "status": "finished",
        "class": {
          "system": "http://terminology.hl7.org/CodeSystem/v3-ActCode",
          "code": "IMP",
          "display": "inpatient encounter"
        },
        "type": [
          {
            "coding": [
              {
                "system": "http://snomed.info/sct",
                "code": "4525004"
              }
            ]
          }
        ],
        "subject": {
          "reference": "Patient/488e4639-8f34-47f7-a089-66111fc00451"
        },
        "period": {
          "start": "2024-02-01T07:00:00.000Z",
          "end": "2024-02-01T07:59:00.000Z"
        }
      },
      "request": {
        "method": "PUT",
        "url": "Encounter/156d3ab4-b7e0-4d41-b622-67464cd46683"
      }
    },
    {
      "fullUrl": "https://madie.cms.gov/Coverage/823b0340-dfac-4fa4-89c6-c16445bf7a2d",
      "resource": {
        "resourceType": "Coverage",
        "id": "823b0340-dfac-4fa4-89c6-c16445bf7a2d",
        "status": "active",
        "beneficiary": {
          "reference": "Patient/488e4639-8f34-47f7-a089-66111fc00451"
        },
        "period": {
          "start": "2004-01-31T01:00:00.000Z"
        },
        "payor": [
          {
            "reference": "Organization/6512b060-e17a-4b6c-a074-050b2c3f7613"
          }
        ]
      },
      "request": {
        "method": "PUT",
        "url": "Coverage/823b0340-dfac-4fa4-89c6-c16445bf7a2d"
      }
    },
    {
      "fullUrl": "https://madie.cms.gov/Procedure/eb2032a8-2e0e-4fa5-8716-66a64163c6ef",
      "resource": {
        "resourceType": "Procedure",
        "id": "eb2032a8-2e0e-4fa5-8716-66a64163c6ef",
        "meta": {
          "profile": [
            "http://hl7.org/fhir/us/qicore/StructureDefinition/qicore-procedure"
          ]
        },
        "extension": [
          {
            "url": "http://hl7.org/fhir/us/qicore/StructureDefinition/qicore-recorded",
            "valueDateTime": "2013-04-05T09:35:00-04:00"
          }
        ],
        "status": "completed",
        "code": {
          "coding": [
            {
              "system": "http://snomed.info/sct",
              "code": "10745001"
            }
          ]
        },
        "subject": {
          "reference": "Patient/488e4639-8f34-47f7-a089-66111fc00451"
        },
        "performedDateTime": "2024-02-01T07:59:00.000+00:00"
      },
      "request": {
        "method": "PUT",
        "url": "Procedure/eb2032a8-2e0e-4fa5-8716-66a64163c6ef"
      }
    },
    {
      "fullUrl": "https://madie.cms.gov/Organization/6512b060-e17a-4b6c-a074-050b2c3f7613",
      "resource": {
        "resourceType": "Organization",
        "id": "6512b060-e17a-4b6c-a074-050b2c3f7613",
        "meta": {
          "profile": [
            "http://hl7.org/fhir/us/qicore/StructureDefinition/qicore-organization"
          ]
        },
        "identifier": [
          {
            "use": "temp",
            "system": "urn:oid:2.16.840.1.113883.4.4",
            "value": "21-3259825"
          }
        ],
        "active": true,
        "type": [
          {
            "coding": [
              {
                "system": "http://terminology.hl7.org/CodeSystem/organization-type",
                "code": "pay",
                "display": "Payer"
              }
            ]
          }
        ],
        "name": "Blue Cross Blue Shield of Texas",
        "telecom": [
          {
            "system": "phone",
            "value": "(+1) 972-766-6900"
          }
        ],
        "address": [
          {
            "use": "billing",
            "type": "postal",
            "line": [
              "P.O. Box 660044"
            ],
            "city": "Dallas",
            "state": "TX",
            "postalCode": "75266-0044",
            "country": "USA"
          }
        ]
      },
      "request": {
        "method": "PUT",
        "url": "Organization/6512b060-e17a-4b6c-a074-050b2c3f7613"
      }
    },
    {
      "fullUrl": "https://madie.cms.gov/Practitioner/8ceb889f-b338-4e2d-b5d1-ac4c3bb49be0",
      "resource": {
        "resourceType": "Practitioner",
        "id": "8ceb889f-b338-4e2d-b5d1-ac4c3bb49be0",
        "identifier": [
          {
            "system": "http://hl7.org/fhir/sid/us-npi",
            "value": "123456"
          }
        ],
        "name": [
          {
            "family": "Evil",
            "prefix": [
              "Dr"
            ]
          }
        ]
      },
      "request": {
        "method": "PUT",
        "url": "Practitioner/8ceb889f-b338-4e2d-b5d1-ac4c3bb49be0"
      }
    },
    {
      "fullUrl": "https://madie.cms.gov/MeasureReport/d46300bb-62d8-4418-a1d3-f22bee3948a2",
      "resource": {
        "resourceType": "MeasureReport",
        "id": "d46300bb-62d8-4418-a1d3-f22bee3948a2",
        "meta": {
          "profile": [
            "http://hl7.org/fhir/us/cqfmeasures/StructureDefinition/test-case-cqfm"
          ]
        },
        "contained": [
          {
            "resourceType": "Parameters",
            "id": "90ab9a38-f7c5-4913-a789-7057afcd456b-parameters",
            "parameter": [
              {
                "name": "subject",
                "valueString": "488e4639-8f34-47f7-a089-66111fc00451"
              }
            ]
          }
        ],
        "extension": [
          {
            "url": "http://hl7.org/fhir/us/cqfmeasures/StructureDefinition/cqfm-inputParameters",
            "valueReference": {
              "reference": "#90ab9a38-f7c5-4913-a789-7057afcd456b-parameters"
            }
          },
          {
            "url": "http://hl7.org/fhir/us/cqfmeasures/StructureDefinition/cqfm-testCaseDescription",
            "valueMarkdown": "Delivery Procedure rel date/time = ED end.  ED/OBS/IP all meet global hospitalization criteria.\n"
          }
        ],
        "modifierExtension": [
          {
            "url": "http://hl7.org/fhir/us/cqfmeasures/StructureDefinition/cqfm-isTestCase",
            "valueBoolean": true
          }
        ],
        "status": "complete",
        "type": "individual",
        "measure": "https://madie.cms.gov/Measure/SevereObstetricComplicationsFHIR",
        "period": {
          "start": "2024-01-01",
          "end": "2024-12-31"
        },
        "group": [
          {
            "population": [
              {
                "code": {
                  "coding": [
                    {
                      "system": "http://terminology.hl7.org/CodeSystem/measure-population",
                      "code": "initial-population",
                      "display": "Initial Population"
                    }
                  ]
                },
                "count": 1
              },
              {
                "code": {
                  "coding": [
                    {
                      "system": "http://terminology.hl7.org/CodeSystem/measure-population",
                      "code": "denominator",
                      "display": "Denominator"
                    }
                  ]
                },
                "count": 0
              },
              {
                "code": {
                  "coding": [
                    {
                      "system": "http://terminology.hl7.org/CodeSystem/measure-population",
                      "code": "denominator-exclusion",
                      "display": "Denominator Exclusion"
                    }
                  ]
                },
                "count": 0
              },
              {
                "code": {
                  "coding": [
                    {
                      "system": "http://terminology.hl7.org/CodeSystem/measure-population",
                      "code": "numerator",
                      "display": "Numerator"
                    }
                  ]
                },
                "count": 0
              }
            ]
          }
        ],
        "evaluatedResource": [
          {
            "reference": "Patient/488e4639-8f34-47f7-a089-66111fc00451"
          },
          {
            "reference": "Encounter/95c2bcd3-bde0-4c37-aae1-f4c91068d514"
          },
          {
            "reference": "Encounter/3fe11eed-cce4-42b9-9e8b-c05201f949a3"
          },
          {
            "reference": "Encounter/156d3ab4-b7e0-4d41-b622-67464cd46683"
          },
          {
            "reference": "Coverage/823b0340-dfac-4fa4-89c6-c16445bf7a2d"
          },
          {
            "reference": "Procedure/eb2032a8-2e0e-4fa5-8716-66a64163c6ef"
          },
          {
            "reference": "Organization/6512b060-e17a-4b6c-a074-050b2c3f7613"
          },
          {
            "reference": "Practitioner/8ceb889f-b338-4e2d-b5d1-ac4c3bb49be0"
          }
        ]
      },
      "request": {
        "method": "PUT",
        "url": "MeasureReport/d46300bb-62d8-4418-a1d3-f22bee3948a2"
      }
    }
  ]
}