{
  "resourceType": "Bundle",
  "id": "6129133a02c62a011f2e6844",
  "type": "transaction",
  "entry": [
    {
      "fullUrl": "https://madie.cms.gov/Patient/da2c903d-ff15-4d99-9152-145164248218",
      "resource": {
        "resourceType": "Patient",
        "id": "da2c903d-ff15-4d99-9152-145164248218",
        "meta": {
          "profile": [
            "http://hl7.org/fhir/us/qicore/StructureDefinition/qicore-patient"
          ]
        },
        "text": {
          "status": "generated",
          "div": "<div xmlns=\"http://www.w3.org/1999/xhtml\"><div class=\"hapiHeaderText\">CMOdurObs_NoEDObs&lt;1hrBFEnc <b>DENEXPASS </b></div><table class=\"hapiPropertyTable\"><tbody><tr><td>Identifier</td><td>5a7e040e256dded60537a54bf9421da8</td></tr><tr><td>Date of birth</td><td><span>21 August 1994</span></td></tr></tbody></table></div>"
        },
        "extension": [
          {
            "url": "http://hl7.org/fhir/us/core/StructureDefinition/us-core-race",
            "extension": [
              {
                "url": "ombCategory",
                "valueCoding": {
                  "system": "urn:oid:2.16.840.1.113883.6.238",
                  "code": "1002-5",
                  "display": "American Indian or Alaska Native",
                  "userSelected": true
                }
              },
              {
                "url": "text",
                "valueString": "American Indian or Alaska Native"
              }
            ]
          },
          {
            "url": "http://hl7.org/fhir/us/core/StructureDefinition/us-core-ethnicity",
            "extension": [
              {
                "url": "ombCategory",
                "valueCoding": {
                  "system": "urn:oid:2.16.840.1.113883.6.238",
                  "code": "2135-2",
                  "display": "Hispanic or Latino",
                  "userSelected": true
                }
              },
              {
                "url": "text",
                "valueString": "Hispanic or Latino"
              }
            ]
          }
        ],
        "identifier": [
          {
            "type": {
              "coding": [
                {
                  "system": "http://terminology.hl7.org/CodeSystem/v2-0203",
                  "code": "MR"
                }
              ]
            },
            "system": "https://bonnie-fhir.healthit.gov/",
            "value": "6129133a02c62a011f2e6844"
          }
        ],
        "active": true,
        "name": [
          {
            "use": "usual",
            "family": "DENEXPass",
            "given": [
              "CMOdurObs_NoEDObs<1hrBFEnc"
            ]
          }
        ],
        "gender": "male",
        "birthDate": "1994-08-21"
      },
      "request": {
        "method": "PUT",
        "url": "Patient/da2c903d-ff15-4d99-9152-145164248218"
      }
    },
    {
      "fullUrl": "https://madie.cms.gov/Encounter/e7aed3eb-f22b-4dbc-8df6-6f92778fdc93",
      "resource": {
        "resourceType": "Encounter",
        "id": "e7aed3eb-f22b-4dbc-8df6-6f92778fdc93",
        "meta": {
          "profile": [
            "http://hl7.org/fhir/us/qicore/StructureDefinition/qicore-encounter"
          ]
        },
        "status": "finished",
        "class": {
          "system": "http://terminology.hl7.org/CodeSystem/v3-ActCode",
          "code": "OBSENC",
          "display": "observation encounter",
          "userSelected": true
        },
        "type": [
          {
            "coding": [
              {
                "system": "http://snomed.info/sct",
                "code": "448951000124107"
              }
            ]
          }
        ],
        "subject": {
          "reference": "Patient/da2c903d-ff15-4d99-9152-145164248218"
        },
        "period": {
          "start": "2025-10-10T07:30:00.000+00:00",
          "end": "2025-10-10T08:00:00.000+00:00"
        },
        "length": {
          "value": 0,
          "unit": "days"
        }
      },
      "request": {
        "method": "PUT",
        "url": "Encounter/e7aed3eb-f22b-4dbc-8df6-6f92778fdc93"
      }
    },
    {
      "fullUrl": "https://madie.cms.gov/Encounter/33c7cee4-21c5-47e6-8ccf-9978ecd6a5f5",
      "resource": {
        "resourceType": "Encounter",
        "id": "33c7cee4-21c5-47e6-8ccf-9978ecd6a5f5",
        "meta": {
          "profile": [
            "http://hl7.org/fhir/us/qicore/StructureDefinition/qicore-encounter"
          ]
        },
        "status": "finished",
        "class": {
          "system": "http://terminology.hl7.org/CodeSystem/v3-ActCode",
          "code": "IMP",
          "display": "inpatient encounter",
          "userSelected": true
        },
        "type": [
          {
            "coding": [
              {
                "system": "http://snomed.info/sct",
                "code": "32485007"
              }
            ]
          }
        ],
        "subject": {
          "reference": "Patient/da2c903d-ff15-4d99-9152-145164248218"
        },
        "period": {
          "start": "2025-10-10T08:01:00.000+00:00",
          "end": "2025-10-12T10:30:00.000+00:00"
        },
        "length": {
          "value": 2,
          "unit": "days"
        },
        "diagnosis": [
          {
            "condition": {
              "reference": "Condition/bb09ed09-9a7a-49be-9c8e-ca97e15c0f62"
            },
            "use": {
              "coding": [
                {
                  "system": "http://terminology.hl7.org/CodeSystem/diagnosis-role",
                  "code": "billing",
                  "display": "Billing"
                }
              ]
            },
            "rank": 1
          }
        ]
      },
      "request": {
        "method": "PUT",
        "url": "Encounter/33c7cee4-21c5-47e6-8ccf-9978ecd6a5f5"
      }
    },
    {
      "fullUrl": "https://madie.cms.gov/ServiceRequest/da1e4c8a-26a0-4296-9fec-ce43347f4516",
      "resource": {
        "resourceType": "ServiceRequest",
        "id": "da1e4c8a-26a0-4296-9fec-ce43347f4516",
        "meta": {
          "profile": [
            "http://hl7.org/fhir/us/qicore/StructureDefinition/qicore-servicerequest"
          ]
        },
        "status": "active",
        "intent": "order",
        "code": {
          "coding": [
            {
              "system": "http://snomed.info/sct",
              "code": "133918004"
            }
          ]
        },
        "subject": {
          "reference": "Patient/da2c903d-ff15-4d99-9152-145164248218"
        },
        "authoredOn": "2025-10-10T07:30:00.000+00:00"
      },
      "request": {
        "method": "PUT",
        "url": "ServiceRequest/da1e4c8a-26a0-4296-9fec-ce43347f4516"
      }
    },
    {
      "fullUrl": "https://madie.cms.gov/Condition/bb09ed09-9a7a-49be-9c8e-ca97e15c0f62",
      "resource": {
        "resourceType": "Condition",
        "id": "bb09ed09-9a7a-49be-9c8e-ca97e15c0f62",
        "meta": {
          "profile": [
            "http://hl7.org/fhir/us/qicore/StructureDefinition/qicore-condition"
          ]
        },
        "clinicalStatus": {
          "coding": [
            {
              "system": "http://terminology.hl7.org/CodeSystem/condition-clinical",
              "code": "active"
            }
          ]
        },
        "verificationStatus": {
          "coding": [
            {
              "system": "http://terminology.hl7.org/CodeSystem/condition-ver-status",
              "code": "confirmed"
            }
          ]
        },
        "category": [
          {
            "coding": [
              {
                "system": "http://terminology.hl7.org/CodeSystem/condition-category",
                "code": "encounter-diagnosis",
                "display": "Encounter Diagnosis"
              }
            ]
          }
        ],
        "code": {
          "coding": [
            {
              "system": "http://snomed.info/sct",
              "version": "2020-09",
              "code": "111297002",
              "display": "Nonparalytic stroke (disorder)",
              "userSelected": true
            }
          ]
        },
        "subject": {
          "reference": "Patient/da2c903d-ff15-4d99-9152-145164248218"
        },
        "recordedDate": "2025-07-15T08:00:00.000+00:00"
      },
      "request": {
        "method": "PUT",
        "url": "Condition/bb09ed09-9a7a-49be-9c8e-ca97e15c0f62"
      }
    },
    {
      "fullUrl": "https://madie.cms.gov/Coverage/f41ede37-13fc-44b8-a5a4-8051875a4432",
      "resource": {
        "resourceType": "Coverage",
        "id": "f41ede37-13fc-44b8-a5a4-8051875a4432",
        "meta": {
          "profile": [
            "http://hl7.org/fhir/us/qicore/StructureDefinition/qicore-coverage"
          ]
        },
        "status": "active",
        "beneficiary": {
          "reference": "Patient/da2c903d-ff15-4d99-9152-145164248218"
        },
        "payor": [
          {
            "reference": "Organization/723d8cc6-4543-40c4-8d02-51687e3e70ac"
          }
        ]
      },
      "request": {
        "method": "PUT",
        "url": "Coverage/f41ede37-13fc-44b8-a5a4-8051875a4432"
      }
    },
    {
      "fullUrl": "https://madie.cms.gov/Organization/723d8cc6-4543-40c4-8d02-51687e3e70ac",
      "resource": {
        "resourceType": "Organization",
        "id": "723d8cc6-4543-40c4-8d02-51687e3e70ac",
        "meta": {
          "profile": [
            "http://hl7.org/fhir/us/qicore/StructureDefinition/qicore-organization"
          ]
        },
        "identifier": [
          {
            "use": "temp",
            "system": "urn:oid:2.16.840.1.113883.4.4",
            "value": "21-3259825"
          }
        ],
        "active": true,
        "type": [
          {
            "coding": [
              {
                "system": "http://terminology.hl7.org/CodeSystem/organization-type",
                "code": "pay",
                "display": "Payer"
              }
            ]
          }
        ],
        "name": "Blue Cross Blue Shield of Texas",
        "telecom": [
          {
            "system": "phone",
            "value": "(+1) 972-766-6900"
          }
        ],
        "address": [
          {
            "use": "billing",
            "type": "postal",
            "line": [
              "P.O. Box 660044"
            ],
            "city": "Dallas",
            "state": "TX",
            "postalCode": "75266-0044",
            "country": "USA"
          }
        ]
      },
      "request": {
        "method": "PUT",
        "url": "Organization/723d8cc6-4543-40c4-8d02-51687e3e70ac"
      }
    },
    {
      "fullUrl": "https://madie.cms.gov/MeasureReport/0f37ad18-ef8e-4d8e-a4c0-5b839660b5cc",
      "resource": {
        "resourceType": "MeasureReport",
        "id": "0f37ad18-ef8e-4d8e-a4c0-5b839660b5cc",
        "meta": {
          "profile": [
            "http://hl7.org/fhir/us/cqfmeasures/StructureDefinition/test-case-cqfm"
          ]
        },
        "contained": [
          {
            "resourceType": "Parameters",
            "id": "ed24d01b-429c-4e5d-a984-8606fb2e99d9-parameters",
            "parameter": [
              {
                "name": "subject",
                "valueString": "da2c903d-ff15-4d99-9152-145164248218"
              }
            ]
          }
        ],
        "extension": [
          {
            "url": "http://hl7.org/fhir/us/cqfmeasures/StructureDefinition/cqfm-inputParameters",
            "valueReference": {
              "reference": "#ed24d01b-429c-4e5d-a984-8606fb2e99d9-parameters"
            }
          },
          {
            "url": "http://hl7.org/fhir/us/cqfmeasures/StructureDefinition/cqfm-testCaseDescription",
            "valueMarkdown": "Patient receives CMO during observation. No ED. Obs ends 1 min before inpatient encounter start. Testing day of operator with HospitalizationWithObservation function."
          }
        ],
        "modifierExtension": [
          {
            "url": "http://hl7.org/fhir/us/cqfmeasures/StructureDefinition/cqfm-isTestCase",
            "valueBoolean": true
          }
        ],
        "status": "complete",
        "type": "individual",
        "measure": "https://madie.cms.gov/Measure/DischargedonAntithromboticTherapyFHIR",
        "period": {
          "start": "2025-01-01",
          "end": "2025-12-31"
        },
        "group": [
          {
            "population": [
              {
                "code": {
                  "coding": [
                    {
                      "system": "http://terminology.hl7.org/CodeSystem/measure-population",
                      "code": "initial-population",
                      "display": "Initial Population"
                    }
                  ]
                },
                "count": 1
              },
              {
                "code": {
                  "coding": [
                    {
                      "system": "http://terminology.hl7.org/CodeSystem/measure-population",
                      "code": "denominator",
                      "display": "Denominator"
                    }
                  ]
                },
                "count": 1
              },
              {
                "code": {
                  "coding": [
                    {
                      "system": "http://terminology.hl7.org/CodeSystem/measure-population",
                      "code": "denominator-exclusion",
                      "display": "Denominator Exclusion"
                    }
                  ]
                },
                "count": 1
              },
              {
                "code": {
                  "coding": [
                    {
                      "system": "http://terminology.hl7.org/CodeSystem/measure-population",
                      "code": "numerator",
                      "display": "Numerator"
                    }
                  ]
                },
                "count": 0
              },
              {
                "code": {
                  "coding": [
                    {
                      "system": "http://terminology.hl7.org/CodeSystem/measure-population",
                      "code": "denominator-exception",
                      "display": "Denominator Exception"
                    }
                  ]
                },
                "count": 0
              }
            ]
          }
        ],
        "evaluatedResource": [
          {
            "reference": "Patient/da2c903d-ff15-4d99-9152-145164248218"
          },
          {
            "reference": "Encounter/e7aed3eb-f22b-4dbc-8df6-6f92778fdc93"
          },
          {
            "reference": "Encounter/33c7cee4-21c5-47e6-8ccf-9978ecd6a5f5"
          },
          {
            "reference": "ServiceRequest/da1e4c8a-26a0-4296-9fec-ce43347f4516"
          },
          {
            "reference": "Condition/bb09ed09-9a7a-49be-9c8e-ca97e15c0f62"
          },
          {
            "reference": "Coverage/f41ede37-13fc-44b8-a5a4-8051875a4432"
          },
          {
            "reference": "Organization/723d8cc6-4543-40c4-8d02-51687e3e70ac"
          }
        ]
      },
      "request": {
        "method": "PUT",
        "url": "MeasureReport/0f37ad18-ef8e-4d8e-a4c0-5b839660b5cc"
      }
    }
  ]
}