{"resourceType":"Bundle","id":"tests-66f803ab-a59f-444e-b3aa-f2685d6f5477-bundle","type":"transaction","entry":[{"fullUrl":"https://madie.cms.gov/Patient/66f803ab-a59f-444e-b3aa-f2685d6f5477","resource":{"resourceType":"Patient","id":"66f803ab-a59f-444e-b3aa-f2685d6f5477","meta":{"profile":["http://hl7.org/fhir/us/qicore/StructureDefinition/qicore-patient"]},"extension":[{"url":"http://hl7.org/fhir/us/core/StructureDefinition/us-core-race","extension":[{"url":"ombCategory","valueCoding":{"system":"urn:oid:2.16.840.1.113883.6.238","code":"2106-3","display":"White"}},{"url":"text","valueString":"White"}]},{"url":"http://hl7.org/fhir/us/core/StructureDefinition/us-core-ethnicity","extension":[{"url":"ombCategory","valueCoding":{"system":"urn:oid:2.16.840.1.113883.6.238","code":"2135-2","display":"Hispanic or Latino"}},{"url":"text","valueString":"Hispanic or Latino"}]}],"identifier":[{"system":"http://hospital.smarthealthit.org","value":"999999999"}],"name":[{"family":"Example","given":["Patient"]}],"gender":"unknown","birthDate":"1955-01-01"},"request":{"method":"PUT","url":"Patient/66f803ab-a59f-444e-b3aa-f2685d6f5477"}},{"fullUrl":"https://madie.cms.gov/Encounter/ad3bbd26-5eb8-4e2e-b97e-64f99e0dcd25","resource":{"resourceType":"Encounter","id":"ad3bbd26-5eb8-4e2e-b97e-64f99e0dcd25","meta":{"profile":["http://hl7.org/fhir/us/qicore/StructureDefinition/qicore-encounter"]},"status":"finished","class":{"system":"http://terminology.hl7.org/CodeSystem/v3-ActCode","code":"IMP","display":"inpatient encounter"},"type":[{"coding":[{"system":"http://snomed.info/sct","code":"183452005"}]}],"subject":{"reference":"Patient/66f803ab-a59f-444e-b3aa-f2685d6f5477"},"period":{"start":"2025-04-07T08:00:00.000Z","end":"2025-04-20T08:15:00.000Z"}},"request":{"method":"PUT","url":"Encounter/ad3bbd26-5eb8-4e2e-b97e-64f99e0dcd25"}},{"fullUrl":"https://madie.cms.gov/Condition/7e02d3c0-b3d1-4c7b-8af5-814d3ad18c46","resource":{"resourceType":"Condition","id":"7e02d3c0-b3d1-4c7b-8af5-814d3ad18c46","meta":{"profile":["http://hl7.org/fhir/us/qicore/StructureDefinition/qicore-condition"]},"category":[{"coding":[{"system":"http://terminology.hl7.org/CodeSystem/condition-category","code":"encounter-diagnosis","display":"Encounter Diagnosis"}]}],"code":{"coding":[{"system":"http://hl7.org/fhir/sid/icd-10-cm","code":"E10.21","display":"Type 1 diabetes mellitus with diabetic nephropathy"}]},"subject":{"reference":"Patient/66f803ab-a59f-444e-b3aa-f2685d6f5477"},"onsetDateTime":"2010-01-02"},"request":{"method":"PUT","url":"Condition/7e02d3c0-b3d1-4c7b-8af5-814d3ad18c46"}},{"fullUrl":"https://madie.cms.gov/Observation/259083a9-15fb-46cf-8526-44ec5fca33ca","resource":{"resourceType":"Observation","id":"259083a9-15fb-46cf-8526-44ec5fca33ca","meta":{"profile":["http://hl7.org/fhir/us/qicore/StructureDefinition/qicore-observation"]},"status":"final","category":[{"coding":[{"system":"http://terminology.hl7.org/CodeSystem/observation-category","code":"laboratory","display":"Laboratory"}]}],"code":{"coding":[{"system":"http://loinc.org","version":"2.72","code":"1556-0","display":"Fasting glucose [Mass/volume] in Capillary blood","userSelected":true}]},"subject":{"reference":"Patient/66f803ab-a59f-444e-b3aa-f2685d6f5477"},"effectiveDateTime":"2025-04-09T07:00:00.000+00:00","valueQuantity":{"value":320,"unit":"mg/dL"}},"request":{"method":"PUT","url":"Observation/259083a9-15fb-46cf-8526-44ec5fca33ca"}},{"fullUrl":"https://madie.cms.gov/MeasureReport/a0ff553b-66f2-4889-816c-498ff2033d54","resource":{"resourceType":"MeasureReport","id":"a0ff553b-66f2-4889-816c-498ff2033d54","meta":{"profile":["http://hl7.org/fhir/us/cqfmeasures/StructureDefinition/test-case-cqfm"]},"contained":[{"resourceType":"Parameters","id":"25cec380-b3b6-4ae3-97ba-32cd49703c0e-parameters","parameter":[{"name":"subject","valueString":"66f803ab-a59f-444e-b3aa-f2685d6f5477"}]}],"extension":[{"url":"http://hl7.org/fhir/us/cqfmeasures/StructureDefinition/cqfm-inputParameters","valueReference":{"reference":"#25cec380-b3b6-4ae3-97ba-32cd49703c0e-parameters"}},{"url":"http://hl7.org/fhir/us/cqfmeasures/StructureDefinition/cqfm-testCaseDescription","valueMarkdown":"IP Encounter with LOS 13 days and one hyperglycemic event (numerator). Cropped qualifying encounter days to 9 as expected. "}],"modifierExtension":[{"url":"http://hl7.org/fhir/us/cqfmeasures/StructureDefinition/cqfm-isTestCase","valueBoolean":true}],"status":"complete","type":"individual","measure":"https://madie.cms.gov/Measure/HospitalHarmHyperglycemiainHospitalizedPatientsFHIR","period":{"start":"2025-01-01","end":"2025-12-31"},"group":[{"population":[{"code":{"coding":[{"system":"http://terminology.hl7.org/CodeSystem/measure-population","code":"initial-population","display":"Initial Population"}]},"count":1},{"code":{"coding":[{"system":"http://terminology.hl7.org/CodeSystem/measure-population","code":"denominator","display":"Denominator"}]},"count":1},{"code":{"coding":[{"system":"http://terminology.hl7.org/CodeSystem/measure-population","code":"denominator-exclusion","display":"Denominator Exclusion"}]},"count":0},{"code":{"coding":[{"system":"http://terminology.hl7.org/CodeSystem/measure-population","code":"numerator","display":"Numerator"}]},"count":1},{"code":{"coding":[{"system":"http://terminology.hl7.org/CodeSystem/measure-population","code":"denominator-observation","display":"DenominatorObservation"}]},"count":9},{"code":{"coding":[{"system":"http://terminology.hl7.org/CodeSystem/measure-population","code":"numerator-observation","display":"Numerator Observation"}]},"count":1}]}],"evaluatedResource":[{"reference":"Patient/66f803ab-a59f-444e-b3aa-f2685d6f5477"},{"reference":"Encounter/ad3bbd26-5eb8-4e2e-b97e-64f99e0dcd25"},{"reference":"Condition/7e02d3c0-b3d1-4c7b-8af5-814d3ad18c46"},{"reference":"Observation/259083a9-15fb-46cf-8526-44ec5fca33ca"}]},"request":{"method":"PUT","url":"MeasureReport/a0ff553b-66f2-4889-816c-498ff2033d54"}}]}