{"resourceType":"Bundle","id":"tests-8d102acf-ff6c-4df2-8110-dc9f1dd9d5fa-bundle","type":"transaction","entry":[{"fullUrl":"https://madie.cms.gov/Patient/8d102acf-ff6c-4df2-8110-dc9f1dd9d5fa","resource":{"resourceType":"Patient","id":"8d102acf-ff6c-4df2-8110-dc9f1dd9d5fa","meta":{"profile":["http://hl7.org/fhir/us/qicore/StructureDefinition/qicore-patient"]},"extension":[{"url":"http://hl7.org/fhir/us/core/StructureDefinition/us-core-race","extension":[{"url":"ombCategory","valueCoding":{"system":"urn:oid:2.16.840.1.113883.6.238","code":"2106-3","display":"White"}},{"url":"text","valueString":"White"}]},{"url":"http://hl7.org/fhir/us/core/StructureDefinition/us-core-ethnicity","extension":[{"url":"ombCategory","valueCoding":{"system":"urn:oid:2.16.840.1.113883.6.238","code":"2135-2","display":"Hispanic or Latino"}},{"url":"text","valueString":"Hispanic or Latino"}]}],"identifier":[{"system":"http://hospital.smarthealthit.org","value":"999999999"}],"name":[{"family":"Example","given":["Patient"]}],"gender":"male","birthDate":"1955-01-01"},"request":{"method":"PUT","url":"Patient/8d102acf-ff6c-4df2-8110-dc9f1dd9d5fa"}},{"fullUrl":"https://madie.cms.gov/Encounter/c2fcb372-e7bc-4469-9f4a-9e072974536b","resource":{"resourceType":"Encounter","id":"c2fcb372-e7bc-4469-9f4a-9e072974536b","meta":{"profile":["http://hl7.org/fhir/us/qicore/StructureDefinition/qicore-encounter"]},"status":"finished","class":{"system":"http://terminology.hl7.org/CodeSystem/v3-ActCode","code":"IMP","display":"inpatient encounter"},"type":[{"coding":[{"system":"http://snomed.info/sct","code":"183452005"}]}],"subject":{"reference":"Patient/8d102acf-ff6c-4df2-8110-dc9f1dd9d5fa"},"period":{"start":"2025-04-07T08:00:00.000Z","end":"2025-04-11T08:15:00.000Z"}},"request":{"method":"PUT","url":"Encounter/c2fcb372-e7bc-4469-9f4a-9e072974536b"}},{"fullUrl":"https://madie.cms.gov/Condition/618af39b-c892-433d-bf9b-ff33ef68a9e7","resource":{"resourceType":"Condition","id":"618af39b-c892-433d-bf9b-ff33ef68a9e7","meta":{"profile":["http://hl7.org/fhir/us/qicore/StructureDefinition/qicore-condition"]},"category":[{"coding":[{"system":"http://terminology.hl7.org/CodeSystem/condition-category","code":"encounter-diagnosis","display":"Encounter Diagnosis"}]}],"code":{"coding":[{"system":"http://hl7.org/fhir/sid/icd-10-cm","code":"E10.21","display":"Type 1 diabetes mellitus with diabetic nephropathy"}]},"subject":{"reference":"Patient/8d102acf-ff6c-4df2-8110-dc9f1dd9d5fa"},"onsetDateTime":"2010-01-02"},"request":{"method":"PUT","url":"Condition/618af39b-c892-433d-bf9b-ff33ef68a9e7"}},{"fullUrl":"https://madie.cms.gov/Observation/1a7c13be-bbc9-4452-9de5-75170ba5dbb9","resource":{"resourceType":"Observation","id":"1a7c13be-bbc9-4452-9de5-75170ba5dbb9","meta":{"profile":["http://hl7.org/fhir/us/qicore/StructureDefinition/qicore-observation"]},"status":"final","category":[{"coding":[{"system":"http://terminology.hl7.org/CodeSystem/observation-category","code":"laboratory","display":"Laboratory"}]}],"code":{"coding":[{"system":"http://loinc.org","version":"2.72","code":"1556-0","display":"Fasting glucose [Mass/volume] in Capillary blood","userSelected":true}]},"subject":{"reference":"Patient/8d102acf-ff6c-4df2-8110-dc9f1dd9d5fa"},"effectiveDateTime":"2025-04-07T08:00:00.000+00:00","valueQuantity":{"value":1001,"unit":"mg/dL"}},"request":{"method":"PUT","url":"Observation/1a7c13be-bbc9-4452-9de5-75170ba5dbb9"}},{"fullUrl":"https://madie.cms.gov/MeasureReport/306d785d-4612-486e-8e8f-586a1855c8e5","resource":{"resourceType":"MeasureReport","id":"306d785d-4612-486e-8e8f-586a1855c8e5","meta":{"profile":["http://hl7.org/fhir/us/cqfmeasures/StructureDefinition/test-case-cqfm"]},"contained":[{"resourceType":"Parameters","id":"2b7e6ea3-d9f0-4cb6-92fc-48a5ffa2ac4a-parameters","parameter":[{"name":"subject","valueString":"8d102acf-ff6c-4df2-8110-dc9f1dd9d5fa"}]}],"extension":[{"url":"http://hl7.org/fhir/us/cqfmeasures/StructureDefinition/cqfm-inputParameters","valueReference":{"reference":"#2b7e6ea3-d9f0-4cb6-92fc-48a5ffa2ac4a-parameters"}},{"url":"http://hl7.org/fhir/us/cqfmeasures/StructureDefinition/cqfm-testCaseDescription","valueMarkdown":"IP Encounter with glucose >1000 1 hour prior to encounter start. Meets exclusion. "}],"modifierExtension":[{"url":"http://hl7.org/fhir/us/cqfmeasures/StructureDefinition/cqfm-isTestCase","valueBoolean":true}],"status":"complete","type":"individual","measure":"https://madie.cms.gov/Measure/HospitalHarmHyperglycemiainHospitalizedPatientsFHIR","period":{"start":"2025-01-01","end":"2025-12-31"},"group":[{"population":[{"code":{"coding":[{"system":"http://terminology.hl7.org/CodeSystem/measure-population","code":"initial-population","display":"Initial Population"}]},"count":1},{"code":{"coding":[{"system":"http://terminology.hl7.org/CodeSystem/measure-population","code":"denominator","display":"Denominator"}]},"count":1},{"code":{"coding":[{"system":"http://terminology.hl7.org/CodeSystem/measure-population","code":"denominator-exclusion","display":"Denominator Exclusion"}]},"count":1},{"code":{"coding":[{"system":"http://terminology.hl7.org/CodeSystem/measure-population","code":"numerator","display":"Numerator"}]},"count":0}]}],"evaluatedResource":[{"reference":"Patient/8d102acf-ff6c-4df2-8110-dc9f1dd9d5fa"},{"reference":"Encounter/c2fcb372-e7bc-4469-9f4a-9e072974536b"},{"reference":"Condition/618af39b-c892-433d-bf9b-ff33ef68a9e7"},{"reference":"Observation/1a7c13be-bbc9-4452-9de5-75170ba5dbb9"}]},"request":{"method":"PUT","url":"MeasureReport/306d785d-4612-486e-8e8f-586a1855c8e5"}}]}