{
  "resourceType": "Bundle",
  "id": "6356dca654e383debade75aa",
  "type": "transaction",
  "entry": [
    {
      "fullUrl": "https://madie.cms.gov/Patient/ca04cc29-3d03-4da7-95b7-0ea3c531e037",
      "resource": {
        "resourceType": "Patient",
        "id": "ca04cc29-3d03-4da7-95b7-0ea3c531e037",
        "meta": {
          "profile": [
            "http://hl7.org/fhir/us/qicore/StructureDefinition/qicore-patient"
          ]
        },
        "text": {
          "status": "generated",
          "div": "<div xmlns=\"http://www.w3.org/1999/xhtml\"><div class=\"hapiHeaderText\">RISKEGAEQ20Wks <b>RISKPass </b></div><table class=\"hapiPropertyTable\"><tbody><tr><td>Date of birth</td><td><span>01 February 2004</span></td></tr></tbody></table></div>"
        },
        "extension": [
          {
            "url": "http://hl7.org/fhir/us/core/StructureDefinition/us-core-race",
            "extension": [
              {
                "url": "ombCategory",
                "valueCoding": {
                  "system": "urn:oid:2.16.840.1.113883.6.238",
                  "code": "1002-5",
                  "display": "American Indian or Alaska Native",
                  "userSelected": true
                }
              },
              {
                "url": "text",
                "valueString": "American Indian or Alaska Native"
              }
            ]
          },
          {
            "url": "http://hl7.org/fhir/us/core/StructureDefinition/us-core-ethnicity",
            "extension": [
              {
                "url": "ombCategory",
                "valueCoding": {
                  "system": "urn:oid:2.16.840.1.113883.6.238",
                  "code": "2135-2",
                  "display": "Hispanic or Latino",
                  "userSelected": true
                }
              },
              {
                "url": "text",
                "valueString": "Hispanic or Latino"
              }
            ]
          }
        ],
        "identifier": [
          {
            "type": {
              "coding": [
                {
                  "system": "http://terminology.hl7.org/CodeSystem/v2-0203",
                  "code": "MR"
                }
              ]
            },
            "system": "https://bonnie-fhir.healthit.gov/",
            "value": "6356dca654e383debade75aa"
          }
        ],
        "active": true,
        "name": [
          {
            "use": "usual",
            "family": "RISKPass",
            "given": [
              "RISKEGAEQ20Wks"
            ]
          }
        ],
        "gender": "female",
        "birthDate": "2004-02-01"
      },
      "request": {
        "method": "PUT",
        "url": "Patient/ca04cc29-3d03-4da7-95b7-0ea3c531e037"
      }
    },
    {
      "fullUrl": "https://madie.cms.gov/Observation/fd31a416-d66d-4d08-b5ef-d70750e49c8a",
      "resource": {
        "resourceType": "Observation",
        "id": "fd31a416-d66d-4d08-b5ef-d70750e49c8a",
        "meta": {
          "profile": [
            "http://hl7.org/fhir/us/qicore/StructureDefinition/qicore-observation"
          ]
        },
        "status": "final",
        "category": [
          {
            "coding": [
              {
                "system": "http://terminology.hl7.org/CodeSystem/observation-category",
                "code": "exam",
                "display": "exam",
                "userSelected": true
              }
            ]
          }
        ],
        "code": {
          "coding": [
            {
              "system": "http://loinc.org",
              "code": "93857-1"
            }
          ]
        },
        "subject": {
          "reference": "Patient/ca04cc29-3d03-4da7-95b7-0ea3c531e037"
        },
        "effectiveDateTime": "2024-02-01T08:00:00.000+00:00",
        "valueDateTime": "2024-02-01T08:00:00+00:00"
      },
      "request": {
        "method": "PUT",
        "url": "Observation/fd31a416-d66d-4d08-b5ef-d70750e49c8a"
      }
    },
    {
      "fullUrl": "https://madie.cms.gov/Observation/b025dabc-33a3-4ac7-9efa-d2bbc1ee1ba1",
      "resource": {
        "resourceType": "Observation",
        "id": "b025dabc-33a3-4ac7-9efa-d2bbc1ee1ba1",
        "meta": {
          "profile": [
            "http://hl7.org/fhir/us/qicore/StructureDefinition/qicore-observation"
          ]
        },
        "status": "final",
        "category": [
          {
            "coding": [
              {
                "system": "http://terminology.hl7.org/CodeSystem/observation-category",
                "code": "exam",
                "display": "exam",
                "userSelected": true
              }
            ]
          }
        ],
        "code": {
          "coding": [
            {
              "system": "http://loinc.org",
              "code": "11884-4"
            }
          ]
        },
        "subject": {
          "reference": "Patient/ca04cc29-3d03-4da7-95b7-0ea3c531e037"
        },
        "effectiveDateTime": "2024-02-01T08:00:00.000+00:00",
        "valueQuantity": {
          "value": 20,
          "system": "http://unitsofmeasure.org",
          "code": "wk"
        }
      },
      "request": {
        "method": "PUT",
        "url": "Observation/b025dabc-33a3-4ac7-9efa-d2bbc1ee1ba1"
      }
    },
    {
      "fullUrl": "https://madie.cms.gov/Encounter/1f7a3068-2ed4-4482-ae0e-a53c5a6005b8",
      "resource": {
        "resourceType": "Encounter",
        "id": "1f7a3068-2ed4-4482-ae0e-a53c5a6005b8",
        "meta": {
          "profile": [
            "http://hl7.org/fhir/us/qicore/StructureDefinition/qicore-encounter"
          ]
        },
        "status": "finished",
        "class": {
          "system": "http://terminology.hl7.org/CodeSystem/v3-ActCode",
          "code": "IMP",
          "display": "inpatient encounter"
        },
        "type": [
          {
            "coding": [
              {
                "system": "http://snomed.info/sct",
                "code": "183452005"
              }
            ]
          }
        ],
        "subject": {
          "reference": "Patient/ca04cc29-3d03-4da7-95b7-0ea3c531e037"
        },
        "period": {
          "start": "2024-02-01T08:00:00.000Z",
          "end": "2024-02-05T08:15:00.000Z"
        },
        "diagnosis": [
          {
            "extension": [
              {
                "url": "http://hl7.org/fhir/us/qicore/StructureDefinition/qicore-encounter-diagnosisPresentOnAdmission",
                "valueCodeableConcept": {
                  "coding": [
                    {
                      "system": "https://www.cms.gov/Medicare/Medicare-Fee-for-Service-Payment/HospitalAcqCond/Coding",
                      "code": "Y"
                    }
                  ]
                }
              }
            ],
            "condition": {
              "reference": "Condition/112a2a20-4c2f-470f-bc40-c14b8eac24cb"
            }
          }
        ]
      },
      "request": {
        "method": "PUT",
        "url": "Encounter/1f7a3068-2ed4-4482-ae0e-a53c5a6005b8"
      }
    },
    {
      "fullUrl": "https://madie.cms.gov/Procedure/5983b4e5-f9cc-43f8-83d0-f7949b57a911",
      "resource": {
        "resourceType": "Procedure",
        "id": "5983b4e5-f9cc-43f8-83d0-f7949b57a911",
        "meta": {
          "profile": [
            "http://hl7.org/fhir/us/qicore/StructureDefinition/qicore-procedure"
          ]
        },
        "extension": [
          {
            "url": "http://hl7.org/fhir/us/qicore/StructureDefinition/qicore-recorded",
            "valueDateTime": "2013-04-05T09:35:00-04:00"
          }
        ],
        "status": "completed",
        "code": {
          "coding": [
            {
              "system": "http://snomed.info/sct",
              "code": "10745001"
            }
          ]
        },
        "subject": {
          "reference": "Patient/ca04cc29-3d03-4da7-95b7-0ea3c531e037"
        },
        "performedPeriod": {
          "start": "2024-02-01T08:00:00.000Z",
          "end": "2024-02-05T08:15:00.000Z"
        }
      },
      "request": {
        "method": "PUT",
        "url": "Procedure/5983b4e5-f9cc-43f8-83d0-f7949b57a911"
      }
    },
    {
      "fullUrl": "https://madie.cms.gov/Condition/112a2a20-4c2f-470f-bc40-c14b8eac24cb",
      "resource": {
        "resourceType": "Condition",
        "id": "112a2a20-4c2f-470f-bc40-c14b8eac24cb",
        "meta": {
          "profile": [
            "http://hl7.org/fhir/us/qicore/StructureDefinition/qicore-condition"
          ]
        },
        "category": [
          {
            "coding": [
              {
                "system": "http://terminology.hl7.org/CodeSystem/condition-category",
                "code": "encounter-diagnosis",
                "display": "Encounter Diagnosis"
              }
            ]
          }
        ],
        "code": {
          "coding": [
            {
              "system": "http://hl7.org/fhir/sid/icd-10-cm",
              "version": "2023",
              "code": "Z3A.20",
              "display": "20 weeks gestation",
              "userSelected": true
            }
          ]
        },
        "subject": {
          "reference": "Patient/ca04cc29-3d03-4da7-95b7-0ea3c531e037"
        },
        "recordedDate": "2024-10-26T08:00:00.000+00:00"
      },
      "request": {
        "method": "PUT",
        "url": "Condition/112a2a20-4c2f-470f-bc40-c14b8eac24cb"
      }
    },
    {
      "fullUrl": "https://madie.cms.gov/Coverage/823a9cf6-0720-4c4b-876d-3ad6ccbd3cc6",
      "resource": {
        "resourceType": "Coverage",
        "id": "823a9cf6-0720-4c4b-876d-3ad6ccbd3cc6",
        "meta": {
          "profile": [
            "http://hl7.org/fhir/us/qicore/StructureDefinition/qicore-coverage"
          ]
        },
        "status": "active",
        "beneficiary": {
          "reference": "Patient/ca04cc29-3d03-4da7-95b7-0ea3c531e037"
        },
        "payor": [
          {
            "reference": "Organization/77130892-5064-45da-95e5-37f620076401"
          }
        ]
      },
      "request": {
        "method": "PUT",
        "url": "Coverage/823a9cf6-0720-4c4b-876d-3ad6ccbd3cc6"
      }
    },
    {
      "fullUrl": "https://madie.cms.gov/Organization/77130892-5064-45da-95e5-37f620076401",
      "resource": {
        "resourceType": "Organization",
        "id": "77130892-5064-45da-95e5-37f620076401",
        "meta": {
          "profile": [
            "http://hl7.org/fhir/us/qicore/StructureDefinition/qicore-organization"
          ]
        },
        "identifier": [
          {
            "use": "temp",
            "system": "urn:oid:2.16.840.1.113883.4.4",
            "value": "21-3259825"
          }
        ],
        "active": true,
        "type": [
          {
            "coding": [
              {
                "system": "http://terminology.hl7.org/CodeSystem/organization-type",
                "code": "pay",
                "display": "Payer"
              }
            ]
          }
        ],
        "name": "Blue Cross Blue Shield of Texas",
        "telecom": [
          {
            "system": "phone",
            "value": "(+1) 972-766-6900"
          }
        ],
        "address": [
          {
            "use": "billing",
            "type": "postal",
            "line": [
              "P.O. Box 660044"
            ],
            "city": "Dallas",
            "state": "TX",
            "postalCode": "75266-0044",
            "country": "USA"
          }
        ]
      },
      "request": {
        "method": "PUT",
        "url": "Organization/77130892-5064-45da-95e5-37f620076401"
      }
    },
    {
      "fullUrl": "https://madie.cms.gov/Practitioner/9278e8ed-f47e-41f7-aa4b-b9100468003a",
      "resource": {
        "resourceType": "Practitioner",
        "id": "9278e8ed-f47e-41f7-aa4b-b9100468003a",
        "identifier": [
          {
            "system": "http://hl7.org/fhir/sid/us-npi",
            "value": "123456"
          }
        ],
        "name": [
          {
            "family": "Evil",
            "prefix": [
              "Dr"
            ]
          }
        ]
      },
      "request": {
        "method": "PUT",
        "url": "Practitioner/9278e8ed-f47e-41f7-aa4b-b9100468003a"
      }
    },
    {
      "fullUrl": "https://madie.cms.gov/MeasureReport/54c02b5c-d006-453e-b24e-14829a0c072e",
      "resource": {
        "resourceType": "MeasureReport",
        "id": "54c02b5c-d006-453e-b24e-14829a0c072e",
        "meta": {
          "profile": [
            "http://hl7.org/fhir/us/cqfmeasures/StructureDefinition/test-case-cqfm"
          ]
        },
        "contained": [
          {
            "resourceType": "Parameters",
            "id": "b410efcf-226c-483a-b472-49c11efb34e6-parameters",
            "parameter": [
              {
                "name": "subject",
                "valueString": "ca04cc29-3d03-4da7-95b7-0ea3c531e037"
              }
            ]
          }
        ],
        "extension": [
          {
            "url": "http://hl7.org/fhir/us/cqfmeasures/StructureDefinition/cqfm-inputParameters",
            "valueReference": {
              "reference": "#b410efcf-226c-483a-b472-49c11efb34e6-parameters"
            }
          },
          {
            "url": "http://hl7.org/fhir/us/cqfmeasures/StructureDefinition/cqfm-testCaseDescription",
            "valueMarkdown": "\"Risk variable of preterm birth.  EGA is 20 weeks.\n.\"\n"
          }
        ],
        "modifierExtension": [
          {
            "url": "http://hl7.org/fhir/us/cqfmeasures/StructureDefinition/cqfm-isTestCase",
            "valueBoolean": true
          }
        ],
        "status": "complete",
        "type": "individual",
        "measure": "https://madie.cms.gov/Measure/SevereObstetricComplicationsFHIR",
        "period": {
          "start": "2024-01-01",
          "end": "2024-12-31"
        },
        "group": [
          {
            "population": [
              {
                "code": {
                  "coding": [
                    {
                      "system": "http://terminology.hl7.org/CodeSystem/measure-population",
                      "code": "initial-population",
                      "display": "Initial Population"
                    }
                  ]
                },
                "count": 1
              },
              {
                "code": {
                  "coding": [
                    {
                      "system": "http://terminology.hl7.org/CodeSystem/measure-population",
                      "code": "denominator",
                      "display": "Denominator"
                    }
                  ]
                },
                "count": 1
              },
              {
                "code": {
                  "coding": [
                    {
                      "system": "http://terminology.hl7.org/CodeSystem/measure-population",
                      "code": "denominator-exclusion",
                      "display": "Denominator Exclusion"
                    }
                  ]
                },
                "count": 0
              },
              {
                "code": {
                  "coding": [
                    {
                      "system": "http://terminology.hl7.org/CodeSystem/measure-population",
                      "code": "numerator",
                      "display": "Numerator"
                    }
                  ]
                },
                "count": 0
              }
            ]
          }
        ],
        "evaluatedResource": [
          {
            "reference": "Patient/ca04cc29-3d03-4da7-95b7-0ea3c531e037"
          },
          {
            "reference": "Observation/fd31a416-d66d-4d08-b5ef-d70750e49c8a"
          },
          {
            "reference": "Observation/b025dabc-33a3-4ac7-9efa-d2bbc1ee1ba1"
          },
          {
            "reference": "Encounter/1f7a3068-2ed4-4482-ae0e-a53c5a6005b8"
          },
          {
            "reference": "Procedure/5983b4e5-f9cc-43f8-83d0-f7949b57a911"
          },
          {
            "reference": "Condition/112a2a20-4c2f-470f-bc40-c14b8eac24cb"
          },
          {
            "reference": "Coverage/823a9cf6-0720-4c4b-876d-3ad6ccbd3cc6"
          },
          {
            "reference": "Organization/77130892-5064-45da-95e5-37f620076401"
          },
          {
            "reference": "Practitioner/9278e8ed-f47e-41f7-aa4b-b9100468003a"
          }
        ]
      },
      "request": {
        "method": "PUT",
        "url": "MeasureReport/54c02b5c-d006-453e-b24e-14829a0c072e"
      }
    }
  ]
}