{
  "resourceType": "Bundle",
  "id": "63ec0969ccb3770120fe9f0b",
  "type": "transaction",
  "entry": [
    {
      "fullUrl": "https://madie.cms.gov/Patient/c9a35d32-7ce3-43b9-8c95-6ec78194c2aa",
      "resource": {
        "resourceType": "Patient",
        "id": "c9a35d32-7ce3-43b9-8c95-6ec78194c2aa",
        "meta": {
          "profile": [
            "http://hl7.org/fhir/us/qicore/StructureDefinition/qicore-patient"
          ]
        },
        "text": {
          "status": "generated",
          "div": "<div xmlns=\"http://www.w3.org/1999/xhtml\"><div class=\"hapiHeaderText\">GT94Yrs <b>IPFAIL </b></div><table class=\"hapiPropertyTable\"><tbody><tr><td>Identifier</td><td>3e2cc83e5e4f5654bc788ad95fe65be8e90e99da3635326149b0cf67c8c316a9</td></tr><tr><td>Date of birth</td><td><span>21 June 1926</span></td></tr></tbody></table></div>"
        },
        "extension": [
          {
            "url": "http://hl7.org/fhir/us/core/StructureDefinition/us-core-race",
            "extension": [
              {
                "url": "ombCategory",
                "valueCoding": {
                  "system": "urn:oid:2.16.840.1.113883.6.238",
                  "code": "1002-5",
                  "display": "American Indian or Alaska Native",
                  "userSelected": true
                }
              },
              {
                "url": "text",
                "valueString": "American Indian or Alaska Native"
              }
            ]
          },
          {
            "url": "http://hl7.org/fhir/us/core/StructureDefinition/us-core-ethnicity",
            "extension": [
              {
                "url": "ombCategory",
                "valueCoding": {
                  "system": "urn:oid:2.16.840.1.113883.6.238",
                  "code": "2186-5",
                  "display": "Not Hispanic or Latino",
                  "userSelected": true
                }
              },
              {
                "url": "text",
                "valueString": "Not Hispanic or Latino"
              }
            ]
          }
        ],
        "identifier": [
          {
            "type": {
              "coding": [
                {
                  "system": "http://terminology.hl7.org/CodeSystem/v2-0203",
                  "code": "MR"
                }
              ]
            },
            "system": "https://bonnie-fhir.healthit.gov/",
            "value": "63ec0969ccb3770120fe9f0b"
          }
        ],
        "active": true,
        "name": [
          {
            "use": "usual",
            "family": "IPPass",
            "given": [
              "Age94DayOfEncounter"
            ]
          }
        ],
        "gender": "male",
        "birthDate": "1931-07-01"
      },
      "request": {
        "method": "PUT",
        "url": "Patient/c9a35d32-7ce3-43b9-8c95-6ec78194c2aa"
      }
    },
    {
      "fullUrl": "https://madie.cms.gov/Encounter/b49c978a-d6e2-4ea7-b604-17713fce575f",
      "resource": {
        "resourceType": "Encounter",
        "id": "b49c978a-d6e2-4ea7-b604-17713fce575f",
        "meta": {
          "profile": [
            "http://hl7.org/fhir/us/qicore/StructureDefinition/qicore-encounter"
          ]
        },
        "status": "finished",
        "class": {
          "system": "http://terminology.hl7.org/CodeSystem/v3-ActCode",
          "code": "IMP",
          "display": "inpatient encounter",
          "userSelected": true
        },
        "type": [
          {
            "coding": [
              {
                "system": "http://snomed.info/sct",
                "code": "183452005"
              }
            ]
          }
        ],
        "subject": {
          "reference": "Patient/c9a35d32-7ce3-43b9-8c95-6ec78194c2aa"
        },
        "period": {
          "start": "2025-07-01T08:00:00.000+00:00",
          "end": "2025-07-03T08:15:00.000+00:00"
        },
        "length": {
          "value": 2,
          "unit": "days"
        }
      },
      "request": {
        "method": "PUT",
        "url": "Encounter/b49c978a-d6e2-4ea7-b604-17713fce575f"
      }
    },
    {
      "fullUrl": "https://madie.cms.gov/Coverage/13c56b19-c172-40a4-8b08-0700685fcaa8",
      "resource": {
        "resourceType": "Coverage",
        "id": "13c56b19-c172-40a4-8b08-0700685fcaa8",
        "meta": {
          "profile": [
            "http://hl7.org/fhir/us/qicore/StructureDefinition/qicore-coverage"
          ]
        },
        "status": "active",
        "type": {
          "coding": [
            {
              "system": "https://nahdo.org/sopt",
              "version": "1.0.1",
              "code": "1",
              "display": "Medicare payer",
              "userSelected": true
            }
          ]
        },
        "beneficiary": {
          "reference": "Patient/c9a35d32-7ce3-43b9-8c95-6ec78194c2aa"
        },
        "payor": [
          {
            "reference": "Organization/fad5b3eb-4257-495f-97fd-cda294750efc"
          }
        ]
      },
      "request": {
        "method": "PUT",
        "url": "Coverage/13c56b19-c172-40a4-8b08-0700685fcaa8"
      }
    },
    {
      "fullUrl": "https://madie.cms.gov/Organization/fad5b3eb-4257-495f-97fd-cda294750efc",
      "resource": {
        "resourceType": "Organization",
        "id": "fad5b3eb-4257-495f-97fd-cda294750efc",
        "meta": {
          "profile": [
            "http://hl7.org/fhir/us/qicore/StructureDefinition/qicore-organization"
          ]
        },
        "identifier": [
          {
            "use": "temp",
            "system": "urn:oid:2.16.840.1.113883.4.4",
            "value": "21-3259825"
          }
        ],
        "active": true,
        "type": [
          {
            "coding": [
              {
                "system": "http://terminology.hl7.org/CodeSystem/organization-type",
                "code": "pay",
                "display": "Payer"
              }
            ]
          }
        ],
        "name": "Blue Cross Blue Shield of Texas",
        "telecom": [
          {
            "system": "phone",
            "value": "(+1) 972-766-6900"
          }
        ],
        "address": [
          {
            "use": "billing",
            "type": "postal",
            "line": [
              "P.O. Box 660044"
            ],
            "city": "Dallas",
            "state": "TX",
            "postalCode": "75266-0044",
            "country": "USA"
          }
        ]
      },
      "request": {
        "method": "PUT",
        "url": "Organization/fad5b3eb-4257-495f-97fd-cda294750efc"
      }
    },
    {
      "fullUrl": "https://madie.cms.gov/Practitioner/333d07c9-1c76-4c6d-9b3f-e2d6fb919c95",
      "resource": {
        "resourceType": "Practitioner",
        "id": "333d07c9-1c76-4c6d-9b3f-e2d6fb919c95",
        "meta": {
          "profile": [
            "http://hl7.org/fhir/us/qicore/StructureDefinition/qicore-practitioner"
          ]
        },
        "identifier": [
          {
            "system": "http://hl7.org/fhir/sid/us-npi",
            "value": "123456"
          }
        ],
        "name": [
          {
            "family": "Evil",
            "prefix": [
              "Dr"
            ]
          }
        ]
      },
      "request": {
        "method": "PUT",
        "url": "Practitioner/333d07c9-1c76-4c6d-9b3f-e2d6fb919c95"
      }
    },
    {
      "fullUrl": "https://madie.cms.gov/MeasureReport/fd56c322-6236-4c64-bbec-ddf3209095e4",
      "resource": {
        "resourceType": "MeasureReport",
        "id": "fd56c322-6236-4c64-bbec-ddf3209095e4",
        "meta": {
          "profile": [
            "http://hl7.org/fhir/us/cqfmeasures/StructureDefinition/test-case-cqfm"
          ]
        },
        "contained": [
          {
            "resourceType": "Parameters",
            "id": "01e69bb6-a96e-4a98-9672-adcaaff58048-parameters",
            "parameter": [
              {
                "name": "subject",
                "valueString": "c9a35d32-7ce3-43b9-8c95-6ec78194c2aa"
              }
            ]
          }
        ],
        "extension": [
          {
            "url": "http://hl7.org/fhir/us/cqfmeasures/StructureDefinition/cqfm-inputParameters",
            "valueReference": {
              "reference": "#01e69bb6-a96e-4a98-9672-adcaaff58048-parameters"
            }
          },
          {
            "url": "http://hl7.org/fhir/us/cqfmeasures/StructureDefinition/cqfm-testCaseDescription",
            "valueMarkdown": "Encounter first day of MP (7/1), patient turned 94 this day and has Medicare."
          }
        ],
        "modifierExtension": [
          {
            "url": "http://hl7.org/fhir/us/cqfmeasures/StructureDefinition/cqfm-isTestCase",
            "valueBoolean": true
          }
        ],
        "status": "complete",
        "type": "individual",
        "measure": "https://madie.cms.gov/Measure/HybridHospitalWideMortalityFHIR",
        "period": {
          "start": "2025-07-01",
          "end": "2026-06-30"
        },
        "group": [
          {
            "population": [
              {
                "code": {
                  "coding": [
                    {
                      "system": "http://terminology.hl7.org/CodeSystem/measure-population",
                      "code": "initial-population",
                      "display": "Initial Population"
                    }
                  ]
                },
                "count": 1
              }
            ]
          }
        ],
        "evaluatedResource": [
          {
            "reference": "Patient/c9a35d32-7ce3-43b9-8c95-6ec78194c2aa"
          },
          {
            "reference": "Encounter/b49c978a-d6e2-4ea7-b604-17713fce575f"
          },
          {
            "reference": "Coverage/13c56b19-c172-40a4-8b08-0700685fcaa8"
          },
          {
            "reference": "Organization/fad5b3eb-4257-495f-97fd-cda294750efc"
          },
          {
            "reference": "Practitioner/333d07c9-1c76-4c6d-9b3f-e2d6fb919c95"
          }
        ]
      },
      "request": {
        "method": "PUT",
        "url": "MeasureReport/fd56c322-6236-4c64-bbec-ddf3209095e4"
      }
    }
  ]
}