{
  "resourceType": "Bundle",
  "id": "633b3f9e0968f80122503cbb",
  "type": "transaction",
  "entry": [
    {
      "fullUrl": "https://madie.cms.gov/Patient/8fa707ac-fa18-43f4-94a0-259259cdd24c",
      "resource": {
        "resourceType": "Patient",
        "id": "8fa707ac-fa18-43f4-94a0-259259cdd24c",
        "meta": {
          "profile": [
            "http://hl7.org/fhir/us/qicore/StructureDefinition/qicore-patient"
          ]
        },
        "text": {
          "status": "generated",
          "div": "<div xmlns=\"http://www.w3.org/1999/xhtml\"><div class=\"hapiHeaderText\">RaceEthnicityDetailedAdded<b>IPPASS </b></div><table class=\"hapiPropertyTable\"><tbody><tr><td>Date of birth</td><td><span>01 February 2004</span></td></tr></tbody></table></div>"
        },
        "extension": [
          {
            "url": "http://hl7.org/fhir/us/core/StructureDefinition/us-core-race",
            "extension": [
              {
                "url": "ombCategory",
                "valueCoding": {
                  "system": "urn:oid:2.16.840.1.113883.6.238",
                  "code": "1002-5",
                  "display": "American Indian or Alaska Native",
                  "userSelected": true
                }
              },
              {
                "url": "text",
                "valueString": "American Indian or Alaska Native"
              },
              {
                "url": "detailed",
                "valueCoding": {
                  "system": "urn:oid:2.16.840.1.113883.6.238",
                  "code": "1653-5",
                  "display": "Tohono O'Odham"
                }
              }
            ]
          },
          {
            "url": "http://hl7.org/fhir/us/core/StructureDefinition/us-core-ethnicity",
            "extension": [
              {
                "url": "ombCategory",
                "valueCoding": {
                  "system": "urn:oid:2.16.840.1.113883.6.238",
                  "code": "2135-2",
                  "display": "Hispanic or Latino",
                  "userSelected": true
                }
              },
              {
                "url": "text",
                "valueString": "Hispanic or Latino"
              },
              {
                "url": "detailed",
                "valueCoding": {
                  "system": "urn:oid:2.16.840.1.113883.6.238",
                  "code": "2153-5",
                  "display": "Mexican American Indian"
                }
              }
            ]
          }
        ],
        "identifier": [
          {
            "type": {
              "coding": [
                {
                  "system": "http://terminology.hl7.org/CodeSystem/v2-0203",
                  "code": "MR"
                }
              ]
            },
            "system": "https://bonnie-fhir.healthit.gov/",
            "value": "633b3f9e0968f80122503cbb"
          }
        ],
        "active": true,
        "name": [
          {
            "use": "usual",
            "family": "IPPass",
            "given": [
              "RaceEthnicityDetailedAdded"
            ]
          }
        ],
        "gender": "female",
        "birthDate": "2016-02-01"
      },
      "request": {
        "method": "PUT",
        "url": "Patient/8fa707ac-fa18-43f4-94a0-259259cdd24c"
      }
    },
    {
      "fullUrl": "https://madie.cms.gov/Encounter/8d706d95-a7f5-4eb2-ab92-7c71ef610b92",
      "resource": {
        "resourceType": "Encounter",
        "id": "8d706d95-a7f5-4eb2-ab92-7c71ef610b92",
        "meta": {
          "profile": [
            "http://hl7.org/fhir/us/qicore/StructureDefinition/qicore-encounter"
          ]
        },
        "status": "finished",
        "class": {
          "system": "http://terminology.hl7.org/CodeSystem/v3-ActCode",
          "code": "IMP",
          "display": "inpatient encounter"
        },
        "type": [
          {
            "coding": [
              {
                "system": "http://snomed.info/sct",
                "code": "183452005"
              }
            ]
          }
        ],
        "subject": {
          "reference": "Patient/a1f320ce-9962-408d-9b45-ee06251601d0"
        },
        "period": {
          "start": "2024-02-01T08:00:00.000Z",
          "end": "2024-02-05T08:15:00.000Z"
        },
        "diagnosis": [
          {
            "condition": {
              "reference": "Condition/Condition-2"
            },
            "use": {
              "coding": [
                {
                  "system": "http://snomed.info/sct",
                  "code": "169826009",
                  "display": "Delivery of Singleton"
                }
              ]
            }
          }
        ]
      },
      "request": {
        "method": "PUT",
        "url": "Encounter/8d706d95-a7f5-4eb2-ab92-7c71ef610b92"
      }
    },
    {
      "fullUrl": "https://madie.cms.gov/Procedure/c1cb2ad7-61ab-404c-b7f8-3395ac0fc597",
      "resource": {
        "resourceType": "Procedure",
        "id": "c1cb2ad7-61ab-404c-b7f8-3395ac0fc597",
        "meta": {
          "profile": [
            "http://hl7.org/fhir/us/qicore/StructureDefinition/qicore-procedure"
          ]
        },
        "extension": [
          {
            "url": "http://hl7.org/fhir/us/qicore/StructureDefinition/qicore-recorded",
            "valueDateTime": "2013-04-05T09:35:00-04:00"
          }
        ],
        "status": "completed",
        "code": {
          "coding": [
            {
              "system": "http://snomed.info/sct",
              "version": "2022-09",
              "code": "10745001",
              "display": "Delivery of transverse presentation (procedure)",
              "userSelected": true
            }
          ]
        },
        "subject": {
          "reference": "Patient/a1f320ce-9962-408d-9b45-ee06251601d0"
        },
        "performedPeriod": {
          "start": "2024-02-01T08:00:00.000Z",
          "end": "2024-02-05T08:15:00.000Z"
        }
      },
      "request": {
        "method": "PUT",
        "url": "Procedure/c1cb2ad7-61ab-404c-b7f8-3395ac0fc597"
      }
    },
    {
      "fullUrl": "https://madie.cms.gov/Coverage/29ee8a5b-a1db-4c27-acce-01f7e2080f6a",
      "resource": {
        "resourceType": "Coverage",
        "id": "29ee8a5b-a1db-4c27-acce-01f7e2080f6a",
        "meta": {
          "profile": [
            "http://hl7.org/fhir/us/qicore/StructureDefinition/qicore-coverage"
          ]
        },
        "status": "active",
        "beneficiary": {
          "reference": "Patient/a1f320ce-9962-408d-9b45-ee06251601d0"
        },
        "payor": [
          {
            "reference": "Organization/a895e23a-00a3-4a67-bbfe-e9a5b8a68fc3"
          }
        ]
      },
      "request": {
        "method": "PUT",
        "url": "Coverage/29ee8a5b-a1db-4c27-acce-01f7e2080f6a"
      }
    },
    {
      "fullUrl": "https://madie.cms.gov/Organization/a895e23a-00a3-4a67-bbfe-e9a5b8a68fc3",
      "resource": {
        "resourceType": "Organization",
        "id": "a895e23a-00a3-4a67-bbfe-e9a5b8a68fc3",
        "meta": {
          "profile": [
            "http://hl7.org/fhir/us/qicore/StructureDefinition/qicore-organization"
          ]
        },
        "identifier": [
          {
            "use": "temp",
            "system": "urn:oid:2.16.840.1.113883.4.4",
            "value": "21-3259825"
          }
        ],
        "active": true,
        "type": [
          {
            "coding": [
              {
                "system": "http://terminology.hl7.org/CodeSystem/organization-type",
                "code": "pay",
                "display": "Payer"
              }
            ]
          }
        ],
        "name": "Blue Cross Blue Shield of Texas",
        "telecom": [
          {
            "system": "phone",
            "value": "(+1) 972-766-6900"
          }
        ],
        "address": [
          {
            "use": "billing",
            "type": "postal",
            "line": [
              "P.O. Box 660044"
            ],
            "city": "Dallas",
            "state": "TX",
            "postalCode": "75266-0044",
            "country": "USA"
          }
        ]
      },
      "request": {
        "method": "PUT",
        "url": "Organization/a895e23a-00a3-4a67-bbfe-e9a5b8a68fc3"
      }
    },
    {
      "fullUrl": "https://madie.cms.gov/Practitioner/0e192fe7-7c64-4c5c-bf30-fa1f563a9c0c",
      "resource": {
        "resourceType": "Practitioner",
        "id": "0e192fe7-7c64-4c5c-bf30-fa1f563a9c0c",
        "identifier": [
          {
            "system": "http://hl7.org/fhir/sid/us-npi",
            "value": "123456"
          }
        ],
        "name": [
          {
            "family": "Evil",
            "prefix": [
              "Dr"
            ]
          }
        ]
      },
      "request": {
        "method": "PUT",
        "url": "Practitioner/0e192fe7-7c64-4c5c-bf30-fa1f563a9c0c"
      }
    },
    {
      "fullUrl": "https://madie.cms.gov/MeasureReport/f6fd4da6-3286-4259-8248-246fd4e00b29",
      "resource": {
        "resourceType": "MeasureReport",
        "id": "f6fd4da6-3286-4259-8248-246fd4e00b29",
        "meta": {
          "profile": [
            "http://hl7.org/fhir/us/cqfmeasures/StructureDefinition/test-case-cqfm"
          ]
        },
        "contained": [
          {
            "resourceType": "Parameters",
            "id": "5f5defb3-d68c-4d48-bbe4-14f19bef2c8f-parameters",
            "parameter": [
              {
                "name": "subject",
                "valueString": "8fa707ac-fa18-43f4-94a0-259259cdd24c"
              }
            ]
          }
        ],
        "extension": [
          {
            "url": "http://hl7.org/fhir/us/cqfmeasures/StructureDefinition/cqfm-inputParameters",
            "valueReference": {
              "reference": "#5f5defb3-d68c-4d48-bbe4-14f19bef2c8f-parameters"
            }
          },
          {
            "url": "http://hl7.org/fhir/us/cqfmeasures/StructureDefinition/cqfm-testCaseDescription",
            "valueMarkdown": "\"url\": \"detailed\" added to test case to increase testing coverage"
          }
        ],
        "modifierExtension": [
          {
            "url": "http://hl7.org/fhir/us/cqfmeasures/StructureDefinition/cqfm-isTestCase",
            "valueBoolean": true
          }
        ],
        "status": "complete",
        "type": "individual",
        "measure": "https://madie.cms.gov/Measure/SevereObstetricComplicationsFHIR",
        "period": {
          "start": "2024-01-01",
          "end": "2024-12-31"
        },
        "group": [
          {
            "population": [
              {
                "code": {
                  "coding": [
                    {
                      "system": "http://terminology.hl7.org/CodeSystem/measure-population",
                      "code": "initial-population",
                      "display": "Initial Population"
                    }
                  ]
                },
                "count": 1
              },
              {
                "code": {
                  "coding": [
                    {
                      "system": "http://terminology.hl7.org/CodeSystem/measure-population",
                      "code": "denominator",
                      "display": "Denominator"
                    }
                  ]
                },
                "count": 0
              },
              {
                "code": {
                  "coding": [
                    {
                      "system": "http://terminology.hl7.org/CodeSystem/measure-population",
                      "code": "denominator-exclusion",
                      "display": "Denominator Exclusion"
                    }
                  ]
                },
                "count": 0
              },
              {
                "code": {
                  "coding": [
                    {
                      "system": "http://terminology.hl7.org/CodeSystem/measure-population",
                      "code": "numerator",
                      "display": "Numerator"
                    }
                  ]
                },
                "count": 0
              }
            ]
          }
        ],
        "evaluatedResource": [
          {
            "reference": "Patient/8fa707ac-fa18-43f4-94a0-259259cdd24c"
          },
          {
            "reference": "Encounter/8d706d95-a7f5-4eb2-ab92-7c71ef610b92"
          },
          {
            "reference": "Procedure/c1cb2ad7-61ab-404c-b7f8-3395ac0fc597"
          },
          {
            "reference": "Coverage/29ee8a5b-a1db-4c27-acce-01f7e2080f6a"
          },
          {
            "reference": "Organization/a895e23a-00a3-4a67-bbfe-e9a5b8a68fc3"
          },
          {
            "reference": "Practitioner/0e192fe7-7c64-4c5c-bf30-fa1f563a9c0c"
          }
        ]
      },
      "request": {
        "method": "PUT",
        "url": "MeasureReport/f6fd4da6-3286-4259-8248-246fd4e00b29"
      }
    }
  ]
}