{"resourceType":"Bundle","id":"tests-a20217e9-2f4f-4f61-8f5f-9abe3b6fa240-bundle","type":"transaction","entry":[{"fullUrl":"https://madie.cms.gov/Patient/a20217e9-2f4f-4f61-8f5f-9abe3b6fa240","resource":{"resourceType":"Patient","id":"a20217e9-2f4f-4f61-8f5f-9abe3b6fa240","meta":{"profile":["http://hl7.org/fhir/us/qicore/StructureDefinition/qicore-patient"]},"text":{"status":"generated","div":"<div xmlns=\"http://www.w3.org/1999/xhtml\"><div class=\"hapiHeaderText\">24After <b>PLATELETPASS </b></div><table class=\"hapiPropertyTable\"><tbody><tr><td>Identifier</td><td>3fdea26b1d172050afffe1c0ff7bd899faa0bd0df7d367f433ae26111f27549c</td></tr><tr><td>Date of birth</td><td><span>15 June 1956</span></td></tr></tbody></table></div>"},"extension":[{"url":"http://hl7.org/fhir/us/core/StructureDefinition/us-core-race","extension":[{"url":"ombCategory","valueCoding":{"system":"urn:oid:2.16.840.1.113883.6.238","code":"1002-5","display":"American Indian or Alaska Native","userSelected":true}},{"url":"text","valueString":"American Indian or Alaska Native"}]},{"url":"http://hl7.org/fhir/us/core/StructureDefinition/us-core-ethnicity","extension":[{"url":"ombCategory","valueCoding":{"system":"urn:oid:2.16.840.1.113883.6.238","code":"2186-5","display":"Not Hispanic or Latino","userSelected":true}},{"url":"text","valueString":"Not Hispanic or Latino"}]}],"identifier":[{"type":{"coding":[{"system":"http://terminology.hl7.org/CodeSystem/v2-0203","code":"MR"}]},"system":"https://bonnie-fhir.healthit.gov/","value":"63ec0969ccb3770120fe9ec7"}],"active":true,"name":[{"use":"usual","family":"PlateletPass","given":["24AfterStartOfAdmit"]}],"gender":"male","birthDate":"1960-06-30"},"request":{"method":"PUT","url":"Patient/a20217e9-2f4f-4f61-8f5f-9abe3b6fa240"}},{"fullUrl":"https://madie.cms.gov/Encounter/01f43506-f9a0-42cb-a6fd-c2fe814a6847","resource":{"resourceType":"Encounter","id":"01f43506-f9a0-42cb-a6fd-c2fe814a6847","meta":{"profile":["http://hl7.org/fhir/us/qicore/StructureDefinition/qicore-encounter"]},"status":"finished","class":{"system":"http://terminology.hl7.org/CodeSystem/v3-ActCode","code":"IMP","display":"inpatient encounter","userSelected":true},"type":[{"coding":[{"system":"http://snomed.info/sct","code":"183452005","display":"Emergency hospital admission (procedure)"}]}],"subject":{"reference":"Patient/a20217e9-2f4f-4f61-8f5f-9abe3b6fa240"},"period":{"start":"2025-07-01T08:00:00.000+00:00","end":"2025-07-03T11:15:00.000+00:00"},"length":{"value":2,"unit":"days"}},"request":{"method":"PUT","url":"Encounter/01f43506-f9a0-42cb-a6fd-c2fe814a6847"}},{"fullUrl":"https://madie.cms.gov/Coverage/ba110e2f-fe4d-4b76-a4b8-77df73c760ea","resource":{"resourceType":"Coverage","id":"ba110e2f-fe4d-4b76-a4b8-77df73c760ea","meta":{"profile":["http://hl7.org/fhir/us/qicore/StructureDefinition/qicore-coverage"]},"status":"active","type":{"coding":[{"system":"https://nahdo.org/sopt","version":"1.0.1","code":"1","display":"Medicare payer","userSelected":true}]},"beneficiary":{"reference":"Patient/a20217e9-2f4f-4f61-8f5f-9abe3b6fa240"},"payor":[{"reference":"Organization/eb915e67-280a-4739-8f21-1c40c3e2ae7a"}]},"request":{"method":"PUT","url":"Coverage/ba110e2f-fe4d-4b76-a4b8-77df73c760ea"}},{"fullUrl":"https://madie.cms.gov/Observation/5124a4ad-bbec-46b0-a816-389df030440e","resource":{"resourceType":"Observation","id":"5124a4ad-bbec-46b0-a816-389df030440e","meta":{"profile":["http://hl7.org/fhir/us/core/StructureDefinition/us-core-observation-lab"]},"status":"final","category":[{"coding":[{"system":"http://terminology.hl7.org/CodeSystem/observation-category","code":"laboratory","display":"laboratory","userSelected":true}]}],"code":{"coding":[{"system":"http://loinc.org","code":"13056-7","display":"Platelets [#/volume] in Plasma by Automated count"}]},"subject":{"reference":"Patient/a20217e9-2f4f-4f61-8f5f-9abe3b6fa240"},"effectiveDateTime":"2025-07-02T08:00:00.000+00:00","issued":"2025-07-02T08:00:00.000+00:00","valueQuantity":{"value":150000,"unit":"/uL","system":"http://unitsofmeasure.org","code":"/uL"}},"request":{"method":"PUT","url":"Observation/5124a4ad-bbec-46b0-a816-389df030440e"}},{"fullUrl":"https://madie.cms.gov/Organization/eb915e67-280a-4739-8f21-1c40c3e2ae7a","resource":{"resourceType":"Organization","id":"eb915e67-280a-4739-8f21-1c40c3e2ae7a","meta":{"profile":["http://hl7.org/fhir/us/qicore/StructureDefinition/qicore-organization"]},"identifier":[{"use":"temp","system":"urn:oid:2.16.840.1.113883.4.4","value":"21-3259825"}],"active":true,"type":[{"coding":[{"system":"http://terminology.hl7.org/CodeSystem/organization-type","code":"pay","display":"Payer"}]}],"name":"Blue Cross Blue Shield of Texas","telecom":[{"system":"phone","value":"(+1) 972-766-6900"}],"address":[{"use":"billing","type":"postal","line":["P.O. Box 660044"],"city":"Dallas","state":"TX","postalCode":"75266-0044","country":"USA"}]},"request":{"method":"PUT","url":"Organization/eb915e67-280a-4739-8f21-1c40c3e2ae7a"}},{"fullUrl":"https://madie.cms.gov/Practitioner/0b031374-0978-451f-a9fc-7fa9cd90e66a","resource":{"resourceType":"Practitioner","id":"0b031374-0978-451f-a9fc-7fa9cd90e66a","meta":{"profile":["http://hl7.org/fhir/us/qicore/StructureDefinition/qicore-practitioner"]},"identifier":[{"system":"http://hl7.org/fhir/sid/us-npi","value":"123456"}],"name":[{"family":"Evil","prefix":["Dr"]}]},"request":{"method":"PUT","url":"Practitioner/0b031374-0978-451f-a9fc-7fa9cd90e66a"}},{"fullUrl":"https://madie.cms.gov/MeasureReport/e5651904-cd9c-42e4-a52f-61d1287f6017","resource":{"resourceType":"MeasureReport","id":"e5651904-cd9c-42e4-a52f-61d1287f6017","meta":{"profile":["http://hl7.org/fhir/us/cqfmeasures/StructureDefinition/test-case-cqfm"]},"contained":[{"resourceType":"Parameters","id":"7307a88a-35be-4913-a514-1a1bacdc2e4b-parameters","parameter":[{"name":"subject","valueString":"a20217e9-2f4f-4f61-8f5f-9abe3b6fa240"}]}],"extension":[{"url":"http://hl7.org/fhir/us/cqfmeasures/StructureDefinition/cqfm-inputParameters","valueReference":{"reference":"#7307a88a-35be-4913-a514-1a1bacdc2e4b-parameters"}},{"url":"http://hl7.org/fhir/us/cqfmeasures/StructureDefinition/cqfm-testCaseDescription","valueMarkdown":"Enc first day of  MP (7/1) , age 65 yesterday, Platelet lab occurred 24 hours after start of inpatient encounter\n"}],"modifierExtension":[{"url":"http://hl7.org/fhir/us/cqfmeasures/StructureDefinition/cqfm-isTestCase","valueBoolean":true}],"status":"complete","type":"individual","measure":"https://madie.cms.gov/Measure/HybridHospitalWideMortalityFHIR","period":{"start":"2025-07-01","end":"2026-06-30"},"group":[{"population":[{"code":{"coding":[{"system":"http://terminology.hl7.org/CodeSystem/measure-population","code":"initial-population","display":"Initial Population"}]},"count":1}]}],"evaluatedResource":[{"reference":"Patient/a20217e9-2f4f-4f61-8f5f-9abe3b6fa240"},{"reference":"Encounter/01f43506-f9a0-42cb-a6fd-c2fe814a6847"},{"reference":"Coverage/ba110e2f-fe4d-4b76-a4b8-77df73c760ea"},{"reference":"Observation/5124a4ad-bbec-46b0-a816-389df030440e"},{"reference":"Organization/eb915e67-280a-4739-8f21-1c40c3e2ae7a"},{"reference":"Practitioner/0b031374-0978-451f-a9fc-7fa9cd90e66a"}]},"request":{"method":"PUT","url":"MeasureReport/e5651904-cd9c-42e4-a52f-61d1287f6017"}}]}