{"resourceType":"Bundle","id":"tests-2070db54-197d-498c-a21e-fd634b635b83-bundle","type":"transaction","entry":[{"fullUrl":"https://madie.cms.gov/Patient/2070db54-197d-498c-a21e-fd634b635b83","resource":{"resourceType":"Patient","id":"2070db54-197d-498c-a21e-fd634b635b83","meta":{"profile":["http://hl7.org/fhir/us/qicore/StructureDefinition/qicore-patient"]},"text":{"status":"generated","div":"<div xmlns=\"http://www.w3.org/1999/xhtml\"><div class=\"hapiHeaderText\">PayerWrongCode <b>IPFAIL </b></div><table class=\"hapiPropertyTable\"><tbody><tr><td>Identifier</td><td>5c9ef8226b4209ed1a321756f1329ad627fbd072de2cf97046c3716c4dd20de3</td></tr><tr><td>Date of birth</td><td><span>15 June 1956</span></td></tr></tbody></table></div>"},"extension":[{"url":"http://hl7.org/fhir/us/core/StructureDefinition/us-core-race","extension":[{"url":"ombCategory","valueCoding":{"system":"urn:oid:2.16.840.1.113883.6.238","code":"1002-5","display":"American Indian or Alaska Native","userSelected":true}},{"url":"text","valueString":"American Indian or Alaska Native"}]},{"url":"http://hl7.org/fhir/us/core/StructureDefinition/us-core-ethnicity","extension":[{"url":"ombCategory","valueCoding":{"system":"urn:oid:2.16.840.1.113883.6.238","code":"2186-5","display":"Not Hispanic or Latino","userSelected":true}},{"url":"text","valueString":"Not Hispanic or Latino"}]}],"identifier":[{"type":{"coding":[{"system":"http://terminology.hl7.org/CodeSystem/v2-0203","code":"MR"}]},"system":"https://bonnie-fhir.healthit.gov/","value":"63ec0967ccb3770120fe9cd2"}],"active":true,"name":[{"use":"usual","family":"IPPFail","given":["PayerIsTricare"]}],"gender":"male","birthDate":"1931-06-01"},"request":{"method":"PUT","url":"Patient/2070db54-197d-498c-a21e-fd634b635b83"}},{"fullUrl":"https://madie.cms.gov/Encounter/28508cc5-f0f5-4c9d-bddc-0ecb34f819b7","resource":{"resourceType":"Encounter","id":"28508cc5-f0f5-4c9d-bddc-0ecb34f819b7","meta":{"profile":["http://hl7.org/fhir/us/qicore/StructureDefinition/qicore-encounter"]},"status":"finished","class":{"system":"http://terminology.hl7.org/CodeSystem/v3-ActCode","code":"IMP","display":"inpatient encounter","userSelected":true},"type":[{"coding":[{"system":"http://snomed.info/sct","code":"183452005"}]}],"subject":{"reference":"Patient/2070db54-197d-498c-a21e-fd634b635b83"},"period":{"start":"2026-06-29T08:00:00+00:00","end":"2026-06-30T18:00:00+00:00"},"length":{"value":1,"unit":"day"}},"request":{"method":"PUT","url":"Encounter/28508cc5-f0f5-4c9d-bddc-0ecb34f819b7"}},{"fullUrl":"https://madie.cms.gov/Coverage/6fd14611-bce6-4d38-9b08-24595bf2f50a","resource":{"resourceType":"Coverage","id":"6fd14611-bce6-4d38-9b08-24595bf2f50a","meta":{"profile":["http://hl7.org/fhir/us/qicore/StructureDefinition/qicore-coverage"]},"status":"active","type":{"coding":[{"system":"https://nahdo.org/sopt","version":"1.0.1","code":"311","display":"Medicare Managed Care Other","userSelected":true}]},"beneficiary":{"reference":"Patient/2070db54-197d-498c-a21e-fd634b635b83"},"period":{"start":"2025-01-01T08:00:00.000+00:00","end":"2025-12-31T08:15:00.000+00:00"},"payor":[{"reference":"Organization/a65985d5-2a61-4afd-bb67-41a578a88e94"}]},"request":{"method":"PUT","url":"Coverage/6fd14611-bce6-4d38-9b08-24595bf2f50a"}},{"fullUrl":"https://madie.cms.gov/Organization/a65985d5-2a61-4afd-bb67-41a578a88e94","resource":{"resourceType":"Organization","id":"a65985d5-2a61-4afd-bb67-41a578a88e94","meta":{"profile":["http://hl7.org/fhir/us/qicore/StructureDefinition/qicore-organization"]},"identifier":[{"use":"temp","system":"urn:oid:2.16.840.1.113883.4.4","value":"21-3259825"}],"active":true,"type":[{"coding":[{"system":"http://terminology.hl7.org/CodeSystem/organization-type","code":"pay","display":"Payer"}]}],"name":"Blue Cross Blue Shield of Texas","telecom":[{"system":"phone","value":"(+1) 972-766-6900"}],"address":[{"use":"billing","type":"postal","line":["P.O. Box 660044"],"city":"Dallas","state":"TX","postalCode":"75266-0044","country":"USA"}]},"request":{"method":"PUT","url":"Organization/a65985d5-2a61-4afd-bb67-41a578a88e94"}},{"fullUrl":"https://madie.cms.gov/Practitioner/8ddb3abe-2016-4634-b3c0-3ed06d28b10f","resource":{"resourceType":"Practitioner","id":"8ddb3abe-2016-4634-b3c0-3ed06d28b10f","meta":{"profile":["http://hl7.org/fhir/us/qicore/StructureDefinition/qicore-practitioner"]},"identifier":[{"system":"http://hl7.org/fhir/sid/us-npi","value":"123456"}],"name":[{"family":"Evil","prefix":["Dr"]}]},"request":{"method":"PUT","url":"Practitioner/8ddb3abe-2016-4634-b3c0-3ed06d28b10f"}},{"fullUrl":"https://madie.cms.gov/MeasureReport/ca2ab6ea-1a09-4f45-b9c4-10eda3576fb8","resource":{"resourceType":"MeasureReport","id":"ca2ab6ea-1a09-4f45-b9c4-10eda3576fb8","meta":{"profile":["http://hl7.org/fhir/us/cqfmeasures/StructureDefinition/test-case-cqfm"]},"contained":[{"resourceType":"Parameters","id":"b1478632-5a32-4468-bcae-8d63a5709b73-parameters","parameter":[{"name":"subject","valueString":"2070db54-197d-498c-a21e-fd634b635b83"}]}],"extension":[{"url":"http://hl7.org/fhir/us/cqfmeasures/StructureDefinition/cqfm-inputParameters","valueReference":{"reference":"#b1478632-5a32-4468-bcae-8d63a5709b73-parameters"}},{"url":"http://hl7.org/fhir/us/cqfmeasures/StructureDefinition/cqfm-testCaseDescription","valueMarkdown":"Enc ends last day of MP (6/30), age 94, and has Tricare insurance, no Medicare."}],"modifierExtension":[{"url":"http://hl7.org/fhir/us/cqfmeasures/StructureDefinition/cqfm-isTestCase","valueBoolean":true}],"status":"complete","type":"individual","measure":"https://madie.cms.gov/Measure/HybridHospitalWideMortalityFHIR","period":{"start":"2025-07-01","end":"2026-06-30"},"group":[{"population":[{"code":{"coding":[{"system":"http://terminology.hl7.org/CodeSystem/measure-population","code":"initial-population","display":"Initial Population"}]},"count":0}]}],"evaluatedResource":[{"reference":"Patient/2070db54-197d-498c-a21e-fd634b635b83"},{"reference":"Encounter/28508cc5-f0f5-4c9d-bddc-0ecb34f819b7"},{"reference":"Coverage/6fd14611-bce6-4d38-9b08-24595bf2f50a"},{"reference":"Organization/a65985d5-2a61-4afd-bb67-41a578a88e94"},{"reference":"Practitioner/8ddb3abe-2016-4634-b3c0-3ed06d28b10f"}]},"request":{"method":"PUT","url":"MeasureReport/ca2ab6ea-1a09-4f45-b9c4-10eda3576fb8"}}]}