{"resourceType":"Bundle","id":"tests-b2bf9ada-5bb2-4bd3-b682-48d1aff3b5f0-bundle","type":"transaction","entry":[{"fullUrl":"https://madie.cms.gov/Patient/b2bf9ada-5bb2-4bd3-b682-48d1aff3b5f0","resource":{"resourceType":"Patient","id":"b2bf9ada-5bb2-4bd3-b682-48d1aff3b5f0","meta":{"profile":["http://hl7.org/fhir/us/qicore/StructureDefinition/qicore-patient"]},"text":{"status":"generated","div":"<div xmlns=\"http://www.w3.org/1999/xhtml\"><div class=\"hapiHeaderText\">HRSBP_relevantDT <b>COMBO1 </b></div><table class=\"hapiPropertyTable\"><tbody><tr><td>Identifier</td><td>647b828a576e8c34eaa21fd1cdb85d1e5f291be13e6a5c34a9fc817d4466c0f5</td></tr><tr><td>Date of birth</td><td><span>15 June 1956</span></td></tr></tbody></table></div>"},"extension":[{"url":"http://hl7.org/fhir/us/core/StructureDefinition/us-core-race","extension":[{"url":"ombCategory","valueCoding":{"system":"urn:oid:2.16.840.1.113883.6.238","code":"2028-9","display":"Asian","userSelected":true}},{"url":"text","valueString":"Asian"}]},{"url":"http://hl7.org/fhir/us/core/StructureDefinition/us-core-ethnicity","extension":[{"url":"ombCategory","valueCoding":{"system":"urn:oid:2.16.840.1.113883.6.238","code":"2135-2","display":"Hispanic or Latino","userSelected":true}},{"url":"text","valueString":"Hispanic or Latino"}]}],"identifier":[{"type":{"coding":[{"system":"http://terminology.hl7.org/CodeSystem/v2-0203","code":"MR"}]},"system":"https://bonnie-fhir.healthit.gov/","value":"63ec096cccb3770120fea1f4"}],"active":true,"name":[{"use":"usual","family":"HeartRatePassSystolicBPFail","given":["HR24HrsBP24Hrs1MinAfterAdmit"]}],"gender":"male","birthDate":"1959-06-30"},"request":{"method":"PUT","url":"Patient/b2bf9ada-5bb2-4bd3-b682-48d1aff3b5f0"}},{"fullUrl":"https://madie.cms.gov/Encounter/225e29b2-f0da-458f-8bb0-96fbef69e1ba","resource":{"resourceType":"Encounter","id":"225e29b2-f0da-458f-8bb0-96fbef69e1ba","meta":{"profile":["http://hl7.org/fhir/us/qicore/StructureDefinition/qicore-encounter"]},"status":"finished","class":{"system":"http://terminology.hl7.org/CodeSystem/v3-ActCode","code":"IMP","display":"inpatient encounter","userSelected":true},"type":[{"coding":[{"system":"http://snomed.info/sct","code":"183452005","display":"Emergency hospital admission (procedure)"}]}],"subject":{"reference":"Patient/b2bf9ada-5bb2-4bd3-b682-48d1aff3b5f0"},"period":{"start":"2025-07-01T10:01:00.000+00:00","end":"2025-07-03T08:15:00.000+00:00"},"length":{"value":3,"unit":"d","system":"http://unitsofmeasure.org","code":"d"}},"request":{"method":"PUT","url":"Encounter/225e29b2-f0da-458f-8bb0-96fbef69e1ba"}},{"fullUrl":"https://madie.cms.gov/Coverage/f4a0e4fd-861c-49df-8534-3429ccb69588","resource":{"resourceType":"Coverage","id":"f4a0e4fd-861c-49df-8534-3429ccb69588","meta":{"profile":["http://hl7.org/fhir/us/qicore/StructureDefinition/qicore-coverage"]},"status":"active","type":{"coding":[{"system":"https://nahdo.org/sopt","version":"1.0.1","code":"1","display":"Medicare payer","userSelected":true}]},"beneficiary":{"reference":"Patient/b2bf9ada-5bb2-4bd3-b682-48d1aff3b5f0"},"payor":[{"reference":"Organization/91238cfe-1a5d-474d-bbfd-a7d22ec15691"}]},"request":{"method":"PUT","url":"Coverage/f4a0e4fd-861c-49df-8534-3429ccb69588"}},{"fullUrl":"https://madie.cms.gov/Observation/773d7350-dab2-45e3-96a4-edb4ad4c65ff","resource":{"resourceType":"Observation","id":"773d7350-dab2-45e3-96a4-edb4ad4c65ff","meta":{"profile":["http://hl7.org/fhir/StructureDefinition/heartrate"]},"status":"final","category":[{"coding":[{"system":"http://terminology.hl7.org/CodeSystem/observation-category","code":"vital-signs","display":"Vital Signs","userSelected":true}]}],"code":{"coding":[{"system":"http://loinc.org","code":"8867-4","display":"Heart rate"}]},"subject":{"reference":"Patient/b2bf9ada-5bb2-4bd3-b682-48d1aff3b5f0"},"effectiveDateTime":"2025-07-01T10:01:00.000+00:00","valueQuantity":{"value":130,"unit":"/min","system":"http://unitsofmeasure.org","code":"/min"}},"request":{"method":"PUT","url":"Observation/773d7350-dab2-45e3-96a4-edb4ad4c65ff"}},{"fullUrl":"https://madie.cms.gov/Observation/9dc284e3-e4ed-42f9-adad-691728358bf4","resource":{"resourceType":"Observation","id":"9dc284e3-e4ed-42f9-adad-691728358bf4","meta":{"profile":["http://hl7.org/fhir/StructureDefinition/heartrate"]},"status":"final","category":[{"coding":[{"system":"http://terminology.hl7.org/CodeSystem/observation-category","code":"vital-signs","display":"Vital Signs"}],"text":"Vital Signs"}],"code":{"coding":[{"system":"http://loinc.org","code":"8867-4","display":"Heart rate"}]},"subject":{"reference":"Patient/b2bf9ada-5bb2-4bd3-b682-48d1aff3b5f0"},"effectiveDateTime":"2025-07-02T10:01:00.000+00:00","valueQuantity":{"value":140,"unit":"/min","system":"http://unitsofmeasure.org","code":"/min"}},"request":{"method":"PUT","url":"Observation/9dc284e3-e4ed-42f9-adad-691728358bf4"}},{"fullUrl":"https://madie.cms.gov/Observation/39a3149b-6126-4e8c-954a-a91c3eef631b","resource":{"resourceType":"Observation","id":"39a3149b-6126-4e8c-954a-a91c3eef631b","meta":{"profile":["http://hl7.org/fhir/StructureDefinition/bp"]},"status":"final","category":[{"coding":[{"system":"http://terminology.hl7.org/CodeSystem/observation-category","code":"vital-signs","display":"Vital Signs"}],"text":"Vital Signs"}],"code":{"coding":[{"system":"http://loinc.org","code":"85354-9","display":"Blood pressure panel"}]},"subject":{"reference":"Patient/b2bf9ada-5bb2-4bd3-b682-48d1aff3b5f0"},"effectiveDateTime":"2025-07-01T12:02:00.000Z","component":[{"code":{"coding":[{"system":"http://loinc.org","code":"8480-6","display":"Systolic blood pressure"}]},"valueQuantity":{"value":131,"unit":"mmHg","system":"http://unitsofmeasure.org","code":"mm[Hg]"}},{"code":{"coding":[{"system":"http://loinc.org","code":"8462-4","display":"Diastolic blood pressure"}]},"valueQuantity":{"value":80,"unit":"mmHg","system":"http://unitsofmeasure.org","code":"mm[Hg]"}}]},"request":{"method":"PUT","url":"Observation/39a3149b-6126-4e8c-954a-a91c3eef631b"}},{"fullUrl":"https://madie.cms.gov/Observation/9dc284e3-e4ed-42f9-adad-691728358bf45","resource":{"resourceType":"Observation","id":"9dc284e3-e4ed-42f9-adad-691728358bf45","meta":{"profile":["http://hl7.org/fhir/StructureDefinition/heartrate"]},"status":"final","category":[{"coding":[{"system":"http://terminology.hl7.org/CodeSystem/observation-category","code":"vital-signs","display":"Vital Signs"}],"text":"Vital Signs"}],"code":{"coding":[{"system":"http://loinc.org","code":"8867-4","display":"Heart rate"}]},"subject":{"reference":"Patient/b2bf9ada-5bb2-4bd3-b682-48d1aff3b5f0"},"effectiveDateTime":"2025-07-03T10:00:00.000+00:00","valueQuantity":{"value":136,"unit":"/min","system":"http://unitsofmeasure.org","code":"/min"}},"request":{"method":"PUT","url":"Observation/9dc284e3-e4ed-42f9-adad-691728358bf45"}},{"fullUrl":"https://madie.cms.gov/Observation/86556592-49ac-4edf-b362-7409a60e393c","resource":{"resourceType":"Observation","id":"86556592-49ac-4edf-b362-7409a60e393c","meta":{"profile":["http://hl7.org/fhir/StructureDefinition/bp"]},"status":"final","category":[{"coding":[{"system":"http://terminology.hl7.org/CodeSystem/observation-category","code":"vital-signs","display":"Vital Signs"}],"text":"Vital Signs"}],"code":{"coding":[{"system":"http://loinc.org","code":"85354-9","display":"Blood pressure panel"}]},"subject":{"reference":"Patient/b2bf9ada-5bb2-4bd3-b682-48d1aff3b5f0"},"effectiveDateTime":"2025-07-02T10:05:00.000Z","component":[{"code":{"coding":[{"system":"http://loinc.org","code":"8480-6","display":"Systolic blood pressure"}]},"valueQuantity":{"value":131,"unit":"mmHg","system":"http://unitsofmeasure.org","code":"mm[Hg]"}},{"code":{"coding":[{"system":"http://loinc.org","code":"8462-4","display":"Diastolic blood pressure"}]},"valueQuantity":{"value":80,"unit":"mmHg","system":"http://unitsofmeasure.org","code":"mm[Hg]"}}]},"request":{"method":"PUT","url":"Observation/86556592-49ac-4edf-b362-7409a60e393c"}},{"fullUrl":"https://madie.cms.gov/Organization/91238cfe-1a5d-474d-bbfd-a7d22ec15691","resource":{"resourceType":"Organization","id":"91238cfe-1a5d-474d-bbfd-a7d22ec15691","meta":{"profile":["http://hl7.org/fhir/us/qicore/StructureDefinition/qicore-organization"]},"identifier":[{"use":"temp","system":"urn:oid:2.16.840.1.113883.4.4","value":"21-3259825"}],"active":true,"type":[{"coding":[{"system":"http://terminology.hl7.org/CodeSystem/organization-type","code":"pay","display":"Payer"}]}],"name":"Blue Cross Blue Shield of Texas","telecom":[{"system":"phone","value":"(+1) 972-766-6900"}],"address":[{"use":"billing","type":"postal","line":["P.O. Box 660044"],"city":"Dallas","state":"TX","postalCode":"75266-0044","country":"USA"}]},"request":{"method":"PUT","url":"Organization/91238cfe-1a5d-474d-bbfd-a7d22ec15691"}},{"fullUrl":"https://madie.cms.gov/Practitioner/8ad05db2-7a88-4a72-abdc-7f5362ba395f","resource":{"resourceType":"Practitioner","id":"8ad05db2-7a88-4a72-abdc-7f5362ba395f","meta":{"profile":["http://hl7.org/fhir/us/qicore/StructureDefinition/qicore-practitioner"]},"identifier":[{"system":"http://hl7.org/fhir/sid/us-npi","value":"123456"}],"name":[{"family":"Evil","prefix":["Dr"]}]},"request":{"method":"PUT","url":"Practitioner/8ad05db2-7a88-4a72-abdc-7f5362ba395f"}},{"fullUrl":"https://madie.cms.gov/MeasureReport/109fb743-58aa-45f7-836c-e79d0138ab2f","resource":{"resourceType":"MeasureReport","id":"109fb743-58aa-45f7-836c-e79d0138ab2f","meta":{"profile":["http://hl7.org/fhir/us/cqfmeasures/StructureDefinition/test-case-cqfm"]},"contained":[{"resourceType":"Parameters","id":"1340f86c-cc9d-4002-a48f-263014f019f6-parameters","parameter":[{"name":"subject","valueString":"b2bf9ada-5bb2-4bd3-b682-48d1aff3b5f0"}]}],"extension":[{"url":"http://hl7.org/fhir/us/cqfmeasures/StructureDefinition/cqfm-inputParameters","valueReference":{"reference":"#1340f86c-cc9d-4002-a48f-263014f019f6-parameters"}},{"url":"http://hl7.org/fhir/us/cqfmeasures/StructureDefinition/cqfm-testCaseDescription","valueMarkdown":"Enc first day of MP (7/1), has Medicare, heart rate evaluated time of admit and at 24 hrs  & 36 hrs after admission; Systolic BP evaluated 2 hrs 1 min and 24 hour after admit. Only the HR is included"}],"modifierExtension":[{"url":"http://hl7.org/fhir/us/cqfmeasures/StructureDefinition/cqfm-isTestCase","valueBoolean":true}],"status":"complete","type":"individual","measure":"https://madie.cms.gov/Measure/HybridHospitalWideMortalityFHIR","period":{"start":"2025-07-01","end":"2026-06-30"},"group":[{"population":[{"code":{"coding":[{"system":"http://terminology.hl7.org/CodeSystem/measure-population","code":"initial-population","display":"Initial Population"}]},"count":1}]}],"evaluatedResource":[{"reference":"Patient/b2bf9ada-5bb2-4bd3-b682-48d1aff3b5f0"},{"reference":"Encounter/225e29b2-f0da-458f-8bb0-96fbef69e1ba"},{"reference":"Coverage/f4a0e4fd-861c-49df-8534-3429ccb69588"},{"reference":"Observation/773d7350-dab2-45e3-96a4-edb4ad4c65ff"},{"reference":"Observation/9dc284e3-e4ed-42f9-adad-691728358bf4"},{"reference":"Observation/39a3149b-6126-4e8c-954a-a91c3eef631b"},{"reference":"Observation/9dc284e3-e4ed-42f9-adad-691728358bf45"},{"reference":"Observation/86556592-49ac-4edf-b362-7409a60e393c"},{"reference":"Organization/91238cfe-1a5d-474d-bbfd-a7d22ec15691"},{"reference":"Practitioner/8ad05db2-7a88-4a72-abdc-7f5362ba395f"}]},"request":{"method":"PUT","url":"MeasureReport/109fb743-58aa-45f7-836c-e79d0138ab2f"}}]}