{"resourceType":"Bundle","id":"tests-19fb06d8-7120-4c21-bbf8-f7ec55490c0d-bundle","type":"transaction","entry":[{"fullUrl":"https://madie.cms.gov/Patient/19fb06d8-7120-4c21-bbf8-f7ec55490c0d","resource":{"resourceType":"Patient","id":"19fb06d8-7120-4c21-bbf8-f7ec55490c0d","meta":{"profile":["http://hl7.org/fhir/us/qicore/StructureDefinition/qicore-patient"]},"text":{"status":"generated","div":"<div xmlns=\"http://www.w3.org/1999/xhtml\"><div class=\"hapiHeaderText\">NoResult <b>SODIUMFAIL </b></div><table class=\"hapiPropertyTable\"><tbody><tr><td>Identifier</td><td>eb360e3679224871964d5b3575a59ceb3c2f6260372fb1be3ea61ac84d2937cf</td></tr><tr><td>Date of birth</td><td><span>15 June 1956</span></td></tr></tbody></table></div>"},"extension":[{"url":"http://hl7.org/fhir/us/core/StructureDefinition/us-core-race","extension":[{"url":"ombCategory","valueCoding":{"system":"urn:oid:2.16.840.1.113883.6.238","code":"1002-5","display":"American Indian or Alaska Native","userSelected":true}},{"url":"text","valueString":"American Indian or Alaska Native"}]},{"url":"http://hl7.org/fhir/us/core/StructureDefinition/us-core-ethnicity","extension":[{"url":"ombCategory","valueCoding":{"system":"urn:oid:2.16.840.1.113883.6.238","code":"2186-5","display":"Not Hispanic or Latino","userSelected":true}},{"url":"text","valueString":"Not Hispanic or Latino"}]}],"identifier":[{"type":{"coding":[{"system":"http://terminology.hl7.org/CodeSystem/v2-0203","code":"MR"}]},"system":"https://bonnie-fhir.healthit.gov/","value":"63ec096bccb3770120fea0ad"}],"active":true,"name":[{"use":"usual","family":"SodiumFail","given":["NoResult"]}],"gender":"male","birthDate":"1956-06-15"},"request":{"method":"PUT","url":"Patient/19fb06d8-7120-4c21-bbf8-f7ec55490c0d"}},{"fullUrl":"https://madie.cms.gov/Encounter/d23f170b-16c8-4e56-a965-4aa0b81f73ca","resource":{"resourceType":"Encounter","id":"d23f170b-16c8-4e56-a965-4aa0b81f73ca","meta":{"profile":["http://hl7.org/fhir/us/qicore/StructureDefinition/qicore-encounter"]},"status":"finished","class":{"system":"http://terminology.hl7.org/CodeSystem/v3-ActCode","code":"IMP","display":"inpatient encounter","userSelected":true},"type":[{"coding":[{"system":"http://snomed.info/sct","code":"183452005"}]}],"subject":{"reference":"Patient/19fb06d8-7120-4c21-bbf8-f7ec55490c0d"},"period":{"start":"2025-07-21T08:00:00.000+00:00","end":"2025-07-23T08:15:00.000+00:00"}},"request":{"method":"PUT","url":"Encounter/d23f170b-16c8-4e56-a965-4aa0b81f73ca"}},{"fullUrl":"https://madie.cms.gov/Coverage/878981c0-a8fa-49c2-a49f-5579763e883f","resource":{"resourceType":"Coverage","id":"878981c0-a8fa-49c2-a49f-5579763e883f","meta":{"profile":["http://hl7.org/fhir/us/qicore/StructureDefinition/qicore-coverage"]},"status":"active","type":{"coding":[{"system":"https://nahdo.org/sopt","version":"1.0.1","code":"1","display":"Medicare payer","userSelected":true}]},"beneficiary":{"reference":"Patient/19fb06d8-7120-4c21-bbf8-f7ec55490c0d"},"payor":[{"reference":"Organization/ebeb0c0c-9594-4775-b228-322870c4791c"}]},"request":{"method":"PUT","url":"Coverage/878981c0-a8fa-49c2-a49f-5579763e883f"}},{"fullUrl":"https://madie.cms.gov/Observation/c77bd5b5-b42e-4cea-8840-568dc6a0afc0","resource":{"resourceType":"Observation","id":"c77bd5b5-b42e-4cea-8840-568dc6a0afc0","meta":{"profile":["http://hl7.org/fhir/us/core/StructureDefinition/us-core-observation-lab"]},"status":"amended","category":[{"coding":[{"system":"http://terminology.hl7.org/CodeSystem/observation-category","code":"laboratory","display":"laboratory","userSelected":true}]}],"code":{"coding":[{"system":"http://loinc.org","code":"2947-0","display":"Sodium [Moles/volume] in Blood"}]},"subject":{"reference":"Patient/19fb06d8-7120-4c21-bbf8-f7ec55490c0d"},"issued":"2025-07-21T08:01:00.000+00:00","dataAbsentReason":{"coding":[{"system":"http://terminology.hl7.org/CodeSystem/data-absent-reason","code":"unknown","display":"Unknown"}]}},"request":{"method":"PUT","url":"Observation/c77bd5b5-b42e-4cea-8840-568dc6a0afc0"}},{"fullUrl":"https://madie.cms.gov/Organization/ebeb0c0c-9594-4775-b228-322870c4791c","resource":{"resourceType":"Organization","id":"ebeb0c0c-9594-4775-b228-322870c4791c","meta":{"profile":["http://hl7.org/fhir/us/qicore/StructureDefinition/qicore-organization"]},"identifier":[{"use":"temp","system":"urn:oid:2.16.840.1.113883.4.4","value":"21-3259825"}],"active":true,"type":[{"coding":[{"system":"http://terminology.hl7.org/CodeSystem/organization-type","code":"pay","display":"Payer"}]}],"name":"Blue Cross Blue Shield of Texas","telecom":[{"system":"phone","value":"(+1) 972-766-6900"}],"address":[{"use":"billing","type":"postal","line":["P.O. Box 660044"],"city":"Dallas","state":"TX","postalCode":"75266-0044","country":"USA"}]},"request":{"method":"PUT","url":"Organization/ebeb0c0c-9594-4775-b228-322870c4791c"}},{"fullUrl":"https://madie.cms.gov/Practitioner/c1780411-2311-47e4-a8fc-012ccfa5057a","resource":{"resourceType":"Practitioner","id":"c1780411-2311-47e4-a8fc-012ccfa5057a","meta":{"profile":["http://hl7.org/fhir/us/qicore/StructureDefinition/qicore-practitioner"]},"identifier":[{"system":"http://hl7.org/fhir/sid/us-npi","value":"123456"}],"name":[{"family":"Evil","prefix":["Dr"]}]},"request":{"method":"PUT","url":"Practitioner/c1780411-2311-47e4-a8fc-012ccfa5057a"}},{"fullUrl":"https://madie.cms.gov/MeasureReport/d43934ff-eed6-4c17-b79a-830ae21b4f2d","resource":{"resourceType":"MeasureReport","id":"d43934ff-eed6-4c17-b79a-830ae21b4f2d","meta":{"profile":["http://hl7.org/fhir/us/cqfmeasures/StructureDefinition/test-case-cqfm"]},"contained":[{"resourceType":"Parameters","id":"fae9be82-d148-413e-99c1-e4f3d042c419-parameters","parameter":[{"name":"subject","valueString":"19fb06d8-7120-4c21-bbf8-f7ec55490c0d"}]}],"extension":[{"url":"http://hl7.org/fhir/us/cqfmeasures/StructureDefinition/cqfm-inputParameters","valueReference":{"reference":"#fae9be82-d148-413e-99c1-e4f3d042c419-parameters"}},{"url":"http://hl7.org/fhir/us/cqfmeasures/StructureDefinition/cqfm-testCaseDescription","valueMarkdown":"In MP. Sodium test given with no result present."}],"modifierExtension":[{"url":"http://hl7.org/fhir/us/cqfmeasures/StructureDefinition/cqfm-isTestCase","valueBoolean":true}],"status":"complete","type":"individual","measure":"https://madie.cms.gov/Measure/HybridHospitalWideMortalityFHIR","period":{"start":"2025-07-01","end":"2026-06-30"},"group":[{"population":[{"code":{"coding":[{"system":"http://terminology.hl7.org/CodeSystem/measure-population","code":"initial-population","display":"Initial Population"}]},"count":1}]}],"evaluatedResource":[{"reference":"Patient/19fb06d8-7120-4c21-bbf8-f7ec55490c0d"},{"reference":"Encounter/d23f170b-16c8-4e56-a965-4aa0b81f73ca"},{"reference":"Coverage/878981c0-a8fa-49c2-a49f-5579763e883f"},{"reference":"Observation/c77bd5b5-b42e-4cea-8840-568dc6a0afc0"},{"reference":"Organization/ebeb0c0c-9594-4775-b228-322870c4791c"},{"reference":"Practitioner/c1780411-2311-47e4-a8fc-012ccfa5057a"}]},"request":{"method":"PUT","url":"MeasureReport/d43934ff-eed6-4c17-b79a-830ae21b4f2d"}}]}