{"resourceType":"Bundle","id":"tests-373589db-31aa-4416-b20f-a921a1bc9639-bundle","type":"transaction","entry":[{"fullUrl":"https://madie.cms.gov/Patient/373589db-31aa-4416-b20f-a921a1bc9639","resource":{"resourceType":"Patient","id":"373589db-31aa-4416-b20f-a921a1bc9639","meta":{"profile":["http://hl7.org/fhir/us/qicore/StructureDefinition/qicore-patient"]},"text":{"status":"generated","div":"<div xmlns=\"http://www.w3.org/1999/xhtml\"><div class=\"hapiHeaderText\">LTE24before <b>BICARBPASS </b></div><table class=\"hapiPropertyTable\"><tbody><tr><td>Identifier</td><td>d69abbc179641b9cd673a4a9152886e8e63bc2e0e7b27e1a51505ef2a774679e</td></tr><tr><td>Date of birth</td><td><span>15 June 1956</span></td></tr></tbody></table></div>"},"extension":[{"url":"http://hl7.org/fhir/us/core/StructureDefinition/us-core-race","extension":[{"url":"ombCategory","valueCoding":{"system":"urn:oid:2.16.840.1.113883.6.238","code":"1002-5","display":"American Indian or Alaska Native","userSelected":true}},{"url":"text","valueString":"American Indian or Alaska Native"}]},{"url":"http://hl7.org/fhir/us/core/StructureDefinition/us-core-ethnicity","extension":[{"url":"ombCategory","valueCoding":{"system":"urn:oid:2.16.840.1.113883.6.238","code":"2186-5","display":"Not Hispanic or Latino","userSelected":true}},{"url":"text","valueString":"Not Hispanic or Latino"}]}],"identifier":[{"type":{"coding":[{"system":"http://terminology.hl7.org/CodeSystem/v2-0203","code":"MR"}]},"system":"https://bonnie-fhir.healthit.gov/","value":"63f3a249ccb3770120ffe6eb"}],"active":true,"name":[{"use":"usual","family":"BicarbonatePass","given":["24HourAfterStartOfAdmit"]}],"gender":"male","birthDate":"1960-07-01"},"request":{"method":"PUT","url":"Patient/373589db-31aa-4416-b20f-a921a1bc9639"}},{"fullUrl":"https://madie.cms.gov/Encounter/fd4776d7-0abd-4db6-83d1-fb0289c0cd88","resource":{"resourceType":"Encounter","id":"fd4776d7-0abd-4db6-83d1-fb0289c0cd88","meta":{"profile":["http://hl7.org/fhir/us/qicore/StructureDefinition/qicore-encounter"]},"status":"finished","class":{"system":"http://terminology.hl7.org/CodeSystem/v3-ActCode","code":"IMP","display":"inpatient encounter","userSelected":true},"type":[{"coding":[{"system":"http://snomed.info/sct","code":"183452005"}]}],"subject":{"reference":"Patient/373589db-31aa-4416-b20f-a921a1bc9639"},"period":{"start":"2025-07-01T08:00:00.000+00:00","end":"2025-07-03T08:15:00.000+00:00"}},"request":{"method":"PUT","url":"Encounter/fd4776d7-0abd-4db6-83d1-fb0289c0cd88"}},{"fullUrl":"https://madie.cms.gov/Coverage/06effd6f-4fa6-48f5-a132-333690d9182f","resource":{"resourceType":"Coverage","id":"06effd6f-4fa6-48f5-a132-333690d9182f","meta":{"profile":["http://hl7.org/fhir/us/qicore/StructureDefinition/qicore-coverage"]},"status":"active","type":{"coding":[{"system":"https://nahdo.org/sopt","version":"1.0.1","code":"1","display":"Medicare payer","userSelected":true}]},"beneficiary":{"reference":"Patient/373589db-31aa-4416-b20f-a921a1bc9639"},"period":{"start":"2025-01-01T08:00:00.000+00:00","end":"2025-12-31T08:15:00.000+00:00"},"payor":[{"reference":"Organization/747d8b64-71af-49db-a487-97b38ef22d36"}]},"request":{"method":"PUT","url":"Coverage/06effd6f-4fa6-48f5-a132-333690d9182f"}},{"fullUrl":"https://madie.cms.gov/Observation/739b65c8-be23-4256-b1c7-bb9b76cb99e7","resource":{"resourceType":"Observation","id":"739b65c8-be23-4256-b1c7-bb9b76cb99e7","meta":{"profile":["http://hl7.org/fhir/us/core/StructureDefinition/us-core-observation-lab"]},"status":"final","category":[{"coding":[{"system":"http://terminology.hl7.org/CodeSystem/observation-category","code":"laboratory","display":"laboratory","userSelected":true}]}],"code":{"coding":[{"system":"http://loinc.org","code":"14627-4","display":"Bicarbonate [Moles/volume] in Venous blood"}]},"subject":{"reference":"Patient/373589db-31aa-4416-b20f-a921a1bc9639"},"effectiveDateTime":"2025-07-02T08:00:00.000+00:00","issued":"2025-07-02T08:00:00.000+00:00","valueQuantity":{"value":25,"unit":"mmol/L","system":"http://unitsofmeasure.org","code":"mg/dL"}},"request":{"method":"PUT","url":"Observation/739b65c8-be23-4256-b1c7-bb9b76cb99e7"}},{"fullUrl":"https://madie.cms.gov/Organization/747d8b64-71af-49db-a487-97b38ef22d36","resource":{"resourceType":"Organization","id":"747d8b64-71af-49db-a487-97b38ef22d36","meta":{"profile":["http://hl7.org/fhir/us/qicore/StructureDefinition/qicore-organization"]},"identifier":[{"use":"temp","system":"urn:oid:2.16.840.1.113883.4.4","value":"21-3259825"}],"active":true,"type":[{"coding":[{"system":"http://terminology.hl7.org/CodeSystem/organization-type","code":"pay","display":"Payer"}]}],"name":"Blue Cross Blue Shield of Texas","telecom":[{"system":"phone","value":"(+1) 972-766-6900"}],"address":[{"use":"billing","type":"postal","line":["P.O. Box 660044"],"city":"Dallas","state":"TX","postalCode":"75266-0044","country":"USA"}]},"request":{"method":"PUT","url":"Organization/747d8b64-71af-49db-a487-97b38ef22d36"}},{"fullUrl":"https://madie.cms.gov/Practitioner/5bba292d-920f-4057-a8db-98ca07f9d583","resource":{"resourceType":"Practitioner","id":"5bba292d-920f-4057-a8db-98ca07f9d583","meta":{"profile":["http://hl7.org/fhir/us/qicore/StructureDefinition/qicore-practitioner"]},"identifier":[{"system":"http://hl7.org/fhir/sid/us-npi","value":"123456"}],"name":[{"family":"Evil","prefix":["Dr"]}]},"request":{"method":"PUT","url":"Practitioner/5bba292d-920f-4057-a8db-98ca07f9d583"}},{"fullUrl":"https://madie.cms.gov/MeasureReport/5eb5ce6a-5592-4ef3-9a71-f6c890d11ca9","resource":{"resourceType":"MeasureReport","id":"5eb5ce6a-5592-4ef3-9a71-f6c890d11ca9","meta":{"profile":["http://hl7.org/fhir/us/cqfmeasures/StructureDefinition/test-case-cqfm"]},"contained":[{"resourceType":"Parameters","id":"b0b630be-912d-42d2-9ecd-57a93fcbf7c3-parameters","parameter":[{"name":"subject","valueString":"373589db-31aa-4416-b20f-a921a1bc9639"}]}],"extension":[{"url":"http://hl7.org/fhir/us/cqfmeasures/StructureDefinition/cqfm-inputParameters","valueReference":{"reference":"#b0b630be-912d-42d2-9ecd-57a93fcbf7c3-parameters"}},{"url":"http://hl7.org/fhir/us/cqfmeasures/StructureDefinition/cqfm-testCaseDescription","valueMarkdown":"Enc starts first day of MP, age 65 today, has Medicare, bicarbonate 25 mmol/L"}],"modifierExtension":[{"url":"http://hl7.org/fhir/us/cqfmeasures/StructureDefinition/cqfm-isTestCase","valueBoolean":true}],"status":"complete","type":"individual","measure":"https://madie.cms.gov/Measure/HybridHospitalWideMortalityFHIR","period":{"start":"2025-07-01","end":"2026-06-30"},"group":[{"population":[{"code":{"coding":[{"system":"http://terminology.hl7.org/CodeSystem/measure-population","code":"initial-population","display":"Initial Population"}]},"count":1}]}],"evaluatedResource":[{"reference":"Patient/373589db-31aa-4416-b20f-a921a1bc9639"},{"reference":"Encounter/fd4776d7-0abd-4db6-83d1-fb0289c0cd88"},{"reference":"Coverage/06effd6f-4fa6-48f5-a132-333690d9182f"},{"reference":"Observation/739b65c8-be23-4256-b1c7-bb9b76cb99e7"},{"reference":"Organization/747d8b64-71af-49db-a487-97b38ef22d36"},{"reference":"Practitioner/5bba292d-920f-4057-a8db-98ca07f9d583"}]},"request":{"method":"PUT","url":"MeasureReport/5eb5ce6a-5592-4ef3-9a71-f6c890d11ca9"}}]}