{"resourceType":"Bundle","id":"tests-e4b49901-191f-4f0b-88c9-a9480cb2d91a-bundle","type":"transaction","entry":[{"fullUrl":"https://madie.cms.gov/Patient/e4b49901-191f-4f0b-88c9-a9480cb2d91a","resource":{"resourceType":"Patient","id":"e4b49901-191f-4f0b-88c9-a9480cb2d91a","meta":{"profile":["http://hl7.org/fhir/us/qicore/StructureDefinition/qicore-patient"]},"text":{"status":"generated","div":"<div xmlns=\"http://www.w3.org/1999/xhtml\"><div class=\"hapiHeaderText\">24After <b>PLATELETPASS </b></div><table class=\"hapiPropertyTable\"><tbody><tr><td>Identifier</td><td>3fdea26b1d172050afffe1c0ff7bd899faa0bd0df7d367f433ae26111f27549c</td></tr><tr><td>Date of birth</td><td><span>15 June 1956</span></td></tr></tbody></table></div>"},"extension":[{"url":"http://hl7.org/fhir/us/core/StructureDefinition/us-core-race","extension":[{"url":"ombCategory","valueCoding":{"system":"urn:oid:2.16.840.1.113883.6.238","code":"1002-5","display":"American Indian or Alaska Native","userSelected":true}},{"url":"text","valueString":"American Indian or Alaska Native"}]},{"url":"http://hl7.org/fhir/us/core/StructureDefinition/us-core-ethnicity","extension":[{"url":"ombCategory","valueCoding":{"system":"urn:oid:2.16.840.1.113883.6.238","code":"2186-5","display":"Not Hispanic or Latino","userSelected":true}},{"url":"text","valueString":"Not Hispanic or Latino"}]}],"identifier":[{"type":{"coding":[{"system":"http://terminology.hl7.org/CodeSystem/v2-0203","code":"MR"}]},"system":"https://bonnie-fhir.healthit.gov/","value":"63ec0969ccb3770120fe9ec7"}],"active":true,"name":[{"use":"usual","family":"PlateletFail","given":["224Hrs1MinAfterStartOfAdmission"]}],"gender":"male","birthDate":"1960-07-01"},"request":{"method":"PUT","url":"Patient/e4b49901-191f-4f0b-88c9-a9480cb2d91a"}},{"fullUrl":"https://madie.cms.gov/Encounter/d0e6a80a-7b1a-497c-b58f-db2a6ae2688c","resource":{"resourceType":"Encounter","id":"d0e6a80a-7b1a-497c-b58f-db2a6ae2688c","meta":{"profile":["http://hl7.org/fhir/us/qicore/StructureDefinition/qicore-encounter"]},"status":"finished","class":{"system":"http://terminology.hl7.org/CodeSystem/v3-ActCode","code":"IMP","display":"inpatient encounter","userSelected":true},"type":[{"coding":[{"system":"http://snomed.info/sct","code":"183452005","display":"Emergency hospital admission (procedure)"}]}],"subject":{"reference":"Patient/e4b49901-191f-4f0b-88c9-a9480cb2d91a"},"period":{"start":"2025-07-01T08:00:00.000+00:00","end":"2025-07-03T11:15:00.000+00:00"},"length":{"value":2,"unit":"days"}},"request":{"method":"PUT","url":"Encounter/d0e6a80a-7b1a-497c-b58f-db2a6ae2688c"}},{"fullUrl":"https://madie.cms.gov/Coverage/afe4bb3b-43a9-4e63-a58e-cd7390e6a014","resource":{"resourceType":"Coverage","id":"afe4bb3b-43a9-4e63-a58e-cd7390e6a014","meta":{"profile":["http://hl7.org/fhir/us/qicore/StructureDefinition/qicore-coverage"]},"status":"active","type":{"coding":[{"system":"https://nahdo.org/sopt","version":"1.0.1","code":"1","display":"Medicare payer","userSelected":true}]},"beneficiary":{"reference":"Patient/e4b49901-191f-4f0b-88c9-a9480cb2d91a"},"payor":[{"reference":"Organization/9442433a-f3dc-47b7-93b1-56b7d31842d0"}]},"request":{"method":"PUT","url":"Coverage/afe4bb3b-43a9-4e63-a58e-cd7390e6a014"}},{"fullUrl":"https://madie.cms.gov/Observation/cd61939d-b1d0-42ac-8307-be71a6be35d4","resource":{"resourceType":"Observation","id":"cd61939d-b1d0-42ac-8307-be71a6be35d4","meta":{"profile":["http://hl7.org/fhir/us/core/StructureDefinition/us-core-observation-lab"]},"status":"final","category":[{"coding":[{"system":"http://terminology.hl7.org/CodeSystem/observation-category","code":"laboratory","display":"Laboratory","userSelected":true}]}],"code":{"coding":[{"system":"http://loinc.org","code":"13056-7","display":"Platelets [#/volume] in Plasma by Automated count"}]},"subject":{"reference":"Patient/e4b49901-191f-4f0b-88c9-a9480cb2d91a"},"effectiveDateTime":"2025-07-02T08:01:00.000+00:00","issued":"2025-07-02T08:01:00.000+00:00","valueQuantity":{"value":150000,"unit":"/uL","system":"http://unitsofmeasure.org","code":"/uL"}},"request":{"method":"PUT","url":"Observation/cd61939d-b1d0-42ac-8307-be71a6be35d4"}},{"fullUrl":"https://madie.cms.gov/Organization/9442433a-f3dc-47b7-93b1-56b7d31842d0","resource":{"resourceType":"Organization","id":"9442433a-f3dc-47b7-93b1-56b7d31842d0","meta":{"profile":["http://hl7.org/fhir/us/qicore/StructureDefinition/qicore-organization"]},"identifier":[{"use":"temp","system":"urn:oid:2.16.840.1.113883.4.4","value":"21-3259825"}],"active":true,"type":[{"coding":[{"system":"http://terminology.hl7.org/CodeSystem/organization-type","code":"pay","display":"Payer"}]}],"name":"Blue Cross Blue Shield of Texas","telecom":[{"system":"phone","value":"(+1) 972-766-6900"}],"address":[{"use":"billing","type":"postal","line":["P.O. Box 660044"],"city":"Dallas","state":"TX","postalCode":"75266-0044","country":"USA"}]},"request":{"method":"PUT","url":"Organization/9442433a-f3dc-47b7-93b1-56b7d31842d0"}},{"fullUrl":"https://madie.cms.gov/Practitioner/d338aeeb-8858-4559-a2aa-afea92cf8576","resource":{"resourceType":"Practitioner","id":"d338aeeb-8858-4559-a2aa-afea92cf8576","meta":{"profile":["http://hl7.org/fhir/us/qicore/StructureDefinition/qicore-practitioner"]},"identifier":[{"system":"http://hl7.org/fhir/sid/us-npi","value":"123456"}],"name":[{"family":"Evil","prefix":["Dr"]}]},"request":{"method":"PUT","url":"Practitioner/d338aeeb-8858-4559-a2aa-afea92cf8576"}},{"fullUrl":"https://madie.cms.gov/MeasureReport/35d6570b-8c0e-4022-8fa9-00165b6ef89a","resource":{"resourceType":"MeasureReport","id":"35d6570b-8c0e-4022-8fa9-00165b6ef89a","meta":{"profile":["http://hl7.org/fhir/us/cqfmeasures/StructureDefinition/test-case-cqfm"]},"contained":[{"resourceType":"Parameters","id":"4a7d6335-2d2a-4f9a-97c5-e4136c92a658-parameters","parameter":[{"name":"subject","valueString":"e4b49901-191f-4f0b-88c9-a9480cb2d91a"}]}],"extension":[{"url":"http://hl7.org/fhir/us/cqfmeasures/StructureDefinition/cqfm-inputParameters","valueReference":{"reference":"#4a7d6335-2d2a-4f9a-97c5-e4136c92a658-parameters"}},{"url":"http://hl7.org/fhir/us/cqfmeasures/StructureDefinition/cqfm-testCaseDescription","valueMarkdown":"Enc. starts first day of MP (7/1), age 65 today, has Medicare, platelet test 24 hrs 1 min after start of admission which exceeds the timeframe"}],"modifierExtension":[{"url":"http://hl7.org/fhir/us/cqfmeasures/StructureDefinition/cqfm-isTestCase","valueBoolean":true}],"status":"complete","type":"individual","measure":"https://madie.cms.gov/Measure/HybridHospitalWideMortalityFHIR","period":{"start":"2025-07-01","end":"2026-06-30"},"group":[{"population":[{"code":{"coding":[{"system":"http://terminology.hl7.org/CodeSystem/measure-population","code":"initial-population","display":"Initial Population"}]},"count":1}]}],"evaluatedResource":[{"reference":"Patient/e4b49901-191f-4f0b-88c9-a9480cb2d91a"},{"reference":"Encounter/d0e6a80a-7b1a-497c-b58f-db2a6ae2688c"},{"reference":"Coverage/afe4bb3b-43a9-4e63-a58e-cd7390e6a014"},{"reference":"Observation/cd61939d-b1d0-42ac-8307-be71a6be35d4"},{"reference":"Organization/9442433a-f3dc-47b7-93b1-56b7d31842d0"},{"reference":"Practitioner/d338aeeb-8858-4559-a2aa-afea92cf8576"}]},"request":{"method":"PUT","url":"MeasureReport/35d6570b-8c0e-4022-8fa9-00165b6ef89a"}}]}