{"resourceType":"Bundle","id":"tests-aebb9d2c-4f53-4dba-924c-b471c936a4ed-bundle","type":"transaction","entry":[{"fullUrl":"https://madie.cms.gov/Patient/aebb9d2c-4f53-4dba-924c-b471c936a4ed","resource":{"resourceType":"Patient","id":"aebb9d2c-4f53-4dba-924c-b471c936a4ed","meta":{"profile":["http://hl7.org/fhir/us/qicore/StructureDefinition/qicore-patient"]},"text":{"status":"generated","div":"<div xmlns=\"http://www.w3.org/1999/xhtml\"><div class=\"hapiHeaderText\">GT2after_relevantDT <b>TEMPFAIL </b></div><table class=\"hapiPropertyTable\"><tbody><tr><td>Identifier</td><td>cf7574e0b0359d44c480900ab191162d228d27f86315407c0dffcae5d072e7d9</td></tr><tr><td>Date of birth</td><td><span>15 June 1956</span></td></tr></tbody></table></div>"},"extension":[{"url":"http://hl7.org/fhir/us/core/StructureDefinition/us-core-race","extension":[{"url":"ombCategory","valueCoding":{"system":"urn:oid:2.16.840.1.113883.6.238","code":"1002-5","display":"American Indian or Alaska Native","userSelected":true}},{"url":"text","valueString":"American Indian or Alaska Native"}]},{"url":"http://hl7.org/fhir/us/core/StructureDefinition/us-core-ethnicity","extension":[{"url":"ombCategory","valueCoding":{"system":"urn:oid:2.16.840.1.113883.6.238","code":"2186-5","display":"Not Hispanic or Latino","userSelected":true}},{"url":"text","valueString":"Not Hispanic or Latino"}]}],"identifier":[{"type":{"coding":[{"system":"http://terminology.hl7.org/CodeSystem/v2-0203","code":"MR"}]},"system":"https://bonnie-fhir.healthit.gov/","value":"63ec096cccb3770120fea245"}],"active":true,"name":[{"use":"usual","family":"TemperatureFail","given":["2Hours1MinAfterStartOfInpatient"]}],"gender":"male","birthDate":"1960-07-01"},"request":{"method":"PUT","url":"Patient/aebb9d2c-4f53-4dba-924c-b471c936a4ed"}},{"fullUrl":"https://madie.cms.gov/Encounter/15a3a98f-eebd-421a-8695-d9f77324db4d","resource":{"resourceType":"Encounter","id":"15a3a98f-eebd-421a-8695-d9f77324db4d","meta":{"profile":["http://hl7.org/fhir/us/qicore/StructureDefinition/qicore-encounter"]},"status":"finished","class":{"system":"http://terminology.hl7.org/CodeSystem/v3-ActCode","code":"IMP","display":"inpatient encounter","userSelected":true},"type":[{"coding":[{"system":"http://snomed.info/sct","code":"183452005"}]}],"subject":{"reference":"Patient/aebb9d2c-4f53-4dba-924c-b471c936a4ed"},"period":{"start":"2025-07-01T08:00:00.000+00:00","end":"2025-07-06T15:15:00.000+00:00"},"length":{"value":1,"unit":"days"}},"request":{"method":"PUT","url":"Encounter/15a3a98f-eebd-421a-8695-d9f77324db4d"}},{"fullUrl":"https://madie.cms.gov/Coverage/b2694f62-602f-4d3b-a626-ed0b348e1062","resource":{"resourceType":"Coverage","id":"b2694f62-602f-4d3b-a626-ed0b348e1062","meta":{"profile":["http://hl7.org/fhir/us/qicore/StructureDefinition/qicore-coverage"]},"status":"active","type":{"coding":[{"system":"https://nahdo.org/sopt","version":"1.0.1","code":"1","display":"Medicare payer","userSelected":true}]},"beneficiary":{"reference":"Patient/aebb9d2c-4f53-4dba-924c-b471c936a4ed"},"payor":[{"reference":"Organization/6fe775d0-173d-4ebc-83c0-184fb03e9c60"}]},"request":{"method":"PUT","url":"Coverage/b2694f62-602f-4d3b-a626-ed0b348e1062"}},{"fullUrl":"https://madie.cms.gov/Observation/d5421880-0112-401b-910a-fd9327699b0c","resource":{"resourceType":"Observation","id":"d5421880-0112-401b-910a-fd9327699b0c","meta":{"profile":["http://hl7.org/fhir/StructureDefinition/bodytemp"]},"status":"final","category":[{"coding":[{"system":"http://terminology.hl7.org/CodeSystem/observation-category","code":"vital-signs","display":"Vital Signs","userSelected":true}]}],"code":{"coding":[{"system":"http://loinc.org","code":"8310-5","display":"Body temperature"}]},"subject":{"reference":"Patient/aebb9d2c-4f53-4dba-924c-b471c936a4ed"},"effectiveDateTime":"2025-07-01T10:01:00.000+00:00","valueQuantity":{"value":99,"unit":"[degF]","system":"http://unitsofmeasure.org","code":"[degF]"}},"request":{"method":"PUT","url":"Observation/d5421880-0112-401b-910a-fd9327699b0c"}},{"fullUrl":"https://madie.cms.gov/Organization/6fe775d0-173d-4ebc-83c0-184fb03e9c60","resource":{"resourceType":"Organization","id":"6fe775d0-173d-4ebc-83c0-184fb03e9c60","meta":{"profile":["http://hl7.org/fhir/us/qicore/StructureDefinition/qicore-organization"]},"identifier":[{"use":"temp","system":"urn:oid:2.16.840.1.113883.4.4","value":"21-3259825"}],"active":true,"type":[{"coding":[{"system":"http://terminology.hl7.org/CodeSystem/organization-type","code":"pay","display":"Payer"}]}],"name":"Blue Cross Blue Shield of Texas","telecom":[{"system":"phone","value":"(+1) 972-766-6900"}],"address":[{"use":"billing","type":"postal","line":["P.O. Box 660044"],"city":"Dallas","state":"TX","postalCode":"75266-0044","country":"USA"}]},"request":{"method":"PUT","url":"Organization/6fe775d0-173d-4ebc-83c0-184fb03e9c60"}},{"fullUrl":"https://madie.cms.gov/Practitioner/9c6c7009-6156-438a-a3e6-108982631a1d","resource":{"resourceType":"Practitioner","id":"9c6c7009-6156-438a-a3e6-108982631a1d","meta":{"profile":["http://hl7.org/fhir/us/qicore/StructureDefinition/qicore-practitioner"]},"identifier":[{"system":"http://hl7.org/fhir/sid/us-npi","value":"123456"}],"name":[{"family":"Evil","prefix":["Dr"]}]},"request":{"method":"PUT","url":"Practitioner/9c6c7009-6156-438a-a3e6-108982631a1d"}},{"fullUrl":"https://madie.cms.gov/MeasureReport/1f358f20-66c4-477c-a3f3-53ccc18b805c","resource":{"resourceType":"MeasureReport","id":"1f358f20-66c4-477c-a3f3-53ccc18b805c","meta":{"profile":["http://hl7.org/fhir/us/cqfmeasures/StructureDefinition/test-case-cqfm"]},"contained":[{"resourceType":"Parameters","id":"e76cdc9f-530f-433b-8679-83b6fa24d929-parameters","parameter":[{"name":"subject","valueString":"aebb9d2c-4f53-4dba-924c-b471c936a4ed"}]}],"extension":[{"url":"http://hl7.org/fhir/us/cqfmeasures/StructureDefinition/cqfm-inputParameters","valueReference":{"reference":"#e76cdc9f-530f-433b-8679-83b6fa24d929-parameters"}},{"url":"http://hl7.org/fhir/us/cqfmeasures/StructureDefinition/cqfm-testCaseDescription","valueMarkdown":"Enc. first day of MP (7/1), age 65, had Medicare, temperature taken 2 hours 1 min after admission"}],"modifierExtension":[{"url":"http://hl7.org/fhir/us/cqfmeasures/StructureDefinition/cqfm-isTestCase","valueBoolean":true}],"status":"complete","type":"individual","measure":"https://madie.cms.gov/Measure/HybridHospitalWideMortalityFHIR","period":{"start":"2025-07-01","end":"2026-06-30"},"group":[{"population":[{"code":{"coding":[{"system":"http://terminology.hl7.org/CodeSystem/measure-population","code":"initial-population","display":"Initial Population"}]},"count":1}]}],"evaluatedResource":[{"reference":"Patient/aebb9d2c-4f53-4dba-924c-b471c936a4ed"},{"reference":"Encounter/15a3a98f-eebd-421a-8695-d9f77324db4d"},{"reference":"Coverage/b2694f62-602f-4d3b-a626-ed0b348e1062"},{"reference":"Observation/d5421880-0112-401b-910a-fd9327699b0c"},{"reference":"Organization/6fe775d0-173d-4ebc-83c0-184fb03e9c60"},{"reference":"Practitioner/9c6c7009-6156-438a-a3e6-108982631a1d"}]},"request":{"method":"PUT","url":"MeasureReport/1f358f20-66c4-477c-a3f3-53ccc18b805c"}}]}