{"resourceType":"Bundle","id":"tests-fb7e59bf-0f57-46ef-96fa-0cb4be46e403-bundle","type":"transaction","entry":[{"fullUrl":"https://madie.cms.gov/Patient/fb7e59bf-0f57-46ef-96fa-0cb4be46e403","resource":{"resourceType":"Patient","id":"fb7e59bf-0f57-46ef-96fa-0cb4be46e403","meta":{"profile":["http://hl7.org/fhir/us/qicore/StructureDefinition/qicore-patient"]},"text":{"status":"generated","div":"<div xmlns=\"http://www.w3.org/1999/xhtml\"><div class=\"hapiHeaderText\">LTE24before <b>CREATPASS </b></div><table class=\"hapiPropertyTable\"><tbody><tr><td>Identifier</td><td>f7053d5904ff43c96857e3f606716bbc2f99b5ab9c0c40826e6d339080f2947c</td></tr><tr><td>Date of birth</td><td><span>15 June 1956</span></td></tr></tbody></table></div>"},"extension":[{"url":"http://hl7.org/fhir/us/core/StructureDefinition/us-core-race","extension":[{"url":"ombCategory","valueCoding":{"system":"urn:oid:2.16.840.1.113883.6.238","code":"2076-8","display":"Native Hawaiian or Other Pacific Islander","userSelected":true}},{"url":"text","valueString":"Native Hawaiian or Other Pacific Islander"}]},{"url":"http://hl7.org/fhir/us/core/StructureDefinition/us-core-ethnicity","extension":[{"url":"ombCategory","valueCoding":{"system":"urn:oid:2.16.840.1.113883.6.238","code":"2186-5","display":"Not Hispanic or Latino","userSelected":true}},{"url":"text","valueString":"Not Hispanic or Latino"}]}],"identifier":[{"type":{"coding":[{"system":"http://terminology.hl7.org/CodeSystem/v2-0203","code":"MR"}]},"system":"https://bonnie-fhir.healthit.gov/","value":"63ec096cccb3770120fea178"}],"active":true,"name":[{"use":"usual","family":"CreatinineFail","given":["24Hrs1MinAfterStartOfInpatient"]}],"gender":"female","birthDate":"1960-07-01"},"request":{"method":"PUT","url":"Patient/fb7e59bf-0f57-46ef-96fa-0cb4be46e403"}},{"fullUrl":"https://madie.cms.gov/Encounter/18f6a5af-5bc9-4625-a705-4bf3ca9f44be","resource":{"resourceType":"Encounter","id":"18f6a5af-5bc9-4625-a705-4bf3ca9f44be","meta":{"profile":["http://hl7.org/fhir/us/qicore/StructureDefinition/qicore-encounter"]},"status":"finished","class":{"system":"http://terminology.hl7.org/CodeSystem/v3-ActCode","code":"ACUTE","display":"Acute","userSelected":true},"type":[{"coding":[{"system":"http://snomed.info/sct","code":"183452005"}]}],"subject":{"reference":"Patient/fb7e59bf-0f57-46ef-96fa-0cb4be46e403"},"period":{"start":"2025-07-01T08:00:00.000+00:00","end":"2025-07-05T08:15:00.000+00:00"},"length":{"value":4,"unit":"days"}},"request":{"method":"PUT","url":"Encounter/18f6a5af-5bc9-4625-a705-4bf3ca9f44be"}},{"fullUrl":"https://madie.cms.gov/Coverage/e01152c4-7092-4f93-b12b-561b9e183f9e","resource":{"resourceType":"Coverage","id":"e01152c4-7092-4f93-b12b-561b9e183f9e","meta":{"profile":["http://hl7.org/fhir/us/qicore/StructureDefinition/qicore-coverage"]},"status":"active","type":{"coding":[{"system":"https://nahdo.org/sopt","version":"1.0.1","code":"1","display":"Medicare payer","userSelected":true}]},"beneficiary":{"reference":"Patient/fb7e59bf-0f57-46ef-96fa-0cb4be46e403"},"payor":[{"reference":"Organization/b9e5cec7-a336-4d9a-8b2f-4ddcd1b6c019"}]},"request":{"method":"PUT","url":"Coverage/e01152c4-7092-4f93-b12b-561b9e183f9e"}},{"fullUrl":"https://madie.cms.gov/Observation/024b6a57-e4bd-490f-8662-aa2302ee1b75","resource":{"resourceType":"Observation","id":"024b6a57-e4bd-490f-8662-aa2302ee1b75","meta":{"profile":["http://hl7.org/fhir/us/core/StructureDefinition/us-core-observation-lab"]},"status":"final","category":[{"coding":[{"system":"http://terminology.hl7.org/CodeSystem/observation-category","code":"laboratory","display":"laboratory","userSelected":true}]}],"code":{"coding":[{"system":"http://loinc.org","version":"2.69","code":"14682-9","display":"Creatinine [Moles/volume] in Serum or Plasma","userSelected":true}]},"subject":{"reference":"Patient/fb7e59bf-0f57-46ef-96fa-0cb4be46e403"},"issued":"2025-07-02T08:01:00.000+00:00","valueQuantity":{"value":1,"unit":"mg/dL","system":"http://unitsofmeasure.org","code":"mg/dL"}},"request":{"method":"PUT","url":"Observation/024b6a57-e4bd-490f-8662-aa2302ee1b75"}},{"fullUrl":"https://madie.cms.gov/Observation/932a750b-4e75-4e14-8b2c-9a689f81c138","resource":{"resourceType":"Observation","id":"932a750b-4e75-4e14-8b2c-9a689f81c138","meta":{"profile":["http://hl7.org/fhir/us/core/StructureDefinition/us-core-observation-lab"]},"status":"final","category":[{"coding":[{"system":"http://terminology.hl7.org/CodeSystem/observation-category","code":"laboratory","display":"laboratory","userSelected":true}]}],"code":{"coding":[{"system":"http://loinc.org","version":"2.69","code":"14682-9","display":"Creatinine [Moles/volume] in Serum or Plasma","userSelected":true}]},"subject":{"reference":"Patient/fb7e59bf-0f57-46ef-96fa-0cb4be46e403"},"issued":"2025-07-03T08:00:00.000+00:00","valueQuantity":{"value":2,"unit":"mg/dL","system":"http://unitsofmeasure.org","code":"mg/dL"}},"request":{"method":"PUT","url":"Observation/932a750b-4e75-4e14-8b2c-9a689f81c138"}},{"fullUrl":"https://madie.cms.gov/Observation/018b60d1-54fd-4285-a5ae-107b3f281fc2","resource":{"resourceType":"Observation","id":"018b60d1-54fd-4285-a5ae-107b3f281fc2","meta":{"profile":["http://hl7.org/fhir/us/qicore/StructureDefinition/qicore-observation"]},"status":"final","category":[{"coding":[{"system":"http://terminology.hl7.org/CodeSystem/observation-category","code":"laboratory","display":"laboratory","userSelected":true}]}],"code":{"coding":[{"system":"http://loinc.org","version":"2.69","code":"14682-9","display":"Creatinine [Moles/volume] in Serum or Plasma","userSelected":true}]},"subject":{"reference":"Patient/fb7e59bf-0f57-46ef-96fa-0cb4be46e403"},"issued":"2025-07-04T20:00:00.000+00:00","valueQuantity":{"value":3,"unit":"mg/dL","system":"http://unitsofmeasure.org","code":"mg/dL"}},"request":{"method":"PUT","url":"Observation/018b60d1-54fd-4285-a5ae-107b3f281fc2"}},{"fullUrl":"https://madie.cms.gov/Observation/8dda8633-3817-4b92-b6f6-799a62b232b2","resource":{"resourceType":"Observation","id":"8dda8633-3817-4b92-b6f6-799a62b232b2","meta":{"profile":["http://hl7.org/fhir/us/qicore/StructureDefinition/qicore-observation"]},"status":"final","category":[{"coding":[{"system":"http://terminology.hl7.org/CodeSystem/observation-category","code":"laboratory","display":"laboratory","userSelected":true}]}],"code":{"coding":[{"system":"http://loinc.org","version":"2.69","code":"14682-9","display":"Creatinine [Moles/volume] in Serum or Plasma","userSelected":true}]},"subject":{"reference":"Patient/fb7e59bf-0f57-46ef-96fa-0cb4be46e403"},"issued":"2025-07-05T08:00:00.000+00:00","valueQuantity":{"value":4,"unit":"mg/dL","system":"http://unitsofmeasure.org","code":"mg/dL"}},"request":{"method":"PUT","url":"Observation/8dda8633-3817-4b92-b6f6-799a62b232b2"}},{"fullUrl":"https://madie.cms.gov/Organization/b9e5cec7-a336-4d9a-8b2f-4ddcd1b6c019","resource":{"resourceType":"Organization","id":"b9e5cec7-a336-4d9a-8b2f-4ddcd1b6c019","meta":{"profile":["http://hl7.org/fhir/us/qicore/StructureDefinition/qicore-organization"]},"identifier":[{"use":"temp","system":"urn:oid:2.16.840.1.113883.4.4","value":"21-3259825"}],"active":true,"type":[{"coding":[{"system":"http://terminology.hl7.org/CodeSystem/organization-type","code":"pay","display":"Payer"}]}],"name":"Blue Cross Blue Shield of Texas","telecom":[{"system":"phone","value":"(+1) 972-766-6900"}],"address":[{"use":"billing","type":"postal","line":["P.O. Box 660044"],"city":"Dallas","state":"TX","postalCode":"75266-0044","country":"USA"}]},"request":{"method":"PUT","url":"Organization/b9e5cec7-a336-4d9a-8b2f-4ddcd1b6c019"}},{"fullUrl":"https://madie.cms.gov/Practitioner/d1489057-c6ee-4b8f-8167-931e718cc8e3","resource":{"resourceType":"Practitioner","id":"d1489057-c6ee-4b8f-8167-931e718cc8e3","meta":{"profile":["http://hl7.org/fhir/us/qicore/StructureDefinition/qicore-practitioner"]},"identifier":[{"system":"http://hl7.org/fhir/sid/us-npi","value":"123456"}],"name":[{"family":"Evil","prefix":["Dr"]}]},"request":{"method":"PUT","url":"Practitioner/d1489057-c6ee-4b8f-8167-931e718cc8e3"}},{"fullUrl":"https://madie.cms.gov/MeasureReport/7270ff25-e4f8-4d91-8dcd-c65e492e5150","resource":{"resourceType":"MeasureReport","id":"7270ff25-e4f8-4d91-8dcd-c65e492e5150","meta":{"profile":["http://hl7.org/fhir/us/cqfmeasures/StructureDefinition/test-case-cqfm"]},"contained":[{"resourceType":"Parameters","id":"9468f02f-7220-4459-9b13-fcb82a3bb68e-parameters","parameter":[{"name":"subject","valueString":"fb7e59bf-0f57-46ef-96fa-0cb4be46e403"}]}],"extension":[{"url":"http://hl7.org/fhir/us/cqfmeasures/StructureDefinition/cqfm-inputParameters","valueReference":{"reference":"#9468f02f-7220-4459-9b13-fcb82a3bb68e-parameters"}},{"url":"http://hl7.org/fhir/us/cqfmeasures/StructureDefinition/cqfm-testCaseDescription","valueMarkdown":"Enc. started first day of MP (7/1), has Medicare, turned 65 today, Creatinine tests performed 24 hrs 1 min after start of inpatient enc; other creatinine  labs followed for days 3-5 but all were well after the 24 hr timeline. "}],"modifierExtension":[{"url":"http://hl7.org/fhir/us/cqfmeasures/StructureDefinition/cqfm-isTestCase","valueBoolean":true}],"status":"complete","type":"individual","measure":"https://madie.cms.gov/Measure/HybridHospitalWideMortalityFHIR","period":{"start":"2025-07-01","end":"2026-06-30"},"group":[{"population":[{"code":{"coding":[{"system":"http://terminology.hl7.org/CodeSystem/measure-population","code":"initial-population","display":"Initial Population"}]},"count":1}]}],"evaluatedResource":[{"reference":"Patient/fb7e59bf-0f57-46ef-96fa-0cb4be46e403"},{"reference":"Encounter/18f6a5af-5bc9-4625-a705-4bf3ca9f44be"},{"reference":"Coverage/e01152c4-7092-4f93-b12b-561b9e183f9e"},{"reference":"Observation/024b6a57-e4bd-490f-8662-aa2302ee1b75"},{"reference":"Observation/932a750b-4e75-4e14-8b2c-9a689f81c138"},{"reference":"Observation/018b60d1-54fd-4285-a5ae-107b3f281fc2"},{"reference":"Observation/8dda8633-3817-4b92-b6f6-799a62b232b2"},{"reference":"Organization/b9e5cec7-a336-4d9a-8b2f-4ddcd1b6c019"},{"reference":"Practitioner/d1489057-c6ee-4b8f-8167-931e718cc8e3"}]},"request":{"method":"PUT","url":"MeasureReport/7270ff25-e4f8-4d91-8dcd-c65e492e5150"}}]}