{
  "resourceType": "Bundle",
  "id": "6359776b6aee9629c8298235",
  "type": "transaction",
  "entry": [
    {
      "fullUrl": "https://madie.cms.gov/Patient/505e8b0e-184c-49a1-ada0-225525add3b0",
      "resource": {
        "resourceType": "Patient",
        "id": "505e8b0e-184c-49a1-ada0-225525add3b0",
        "meta": {
          "profile": [
            "http://hl7.org/fhir/us/qicore/StructureDefinition/qicore-patient"
          ]
        },
        "text": {
          "status": "generated",
          "div": "<div xmlns=\"http://www.w3.org/1999/xhtml\"><div class=\"hapiHeaderText\">RISKWBC24hours1MinB4EDOTTriageEnc <b>RISKFail </b></div><table class=\"hapiPropertyTable\"><tbody><tr><td>Date of birth</td><td><span>01 February 2004</span></td></tr></tbody></table></div>"
        },
        "extension": [
          {
            "url": "http://hl7.org/fhir/us/core/StructureDefinition/us-core-race",
            "extension": [
              {
                "url": "ombCategory",
                "valueCoding": {
                  "system": "urn:oid:2.16.840.1.113883.6.238",
                  "code": "1002-5",
                  "display": "American Indian or Alaska Native",
                  "userSelected": true
                }
              },
              {
                "url": "text",
                "valueString": "American Indian or Alaska Native"
              }
            ]
          },
          {
            "url": "http://hl7.org/fhir/us/core/StructureDefinition/us-core-ethnicity",
            "extension": [
              {
                "url": "ombCategory",
                "valueCoding": {
                  "system": "urn:oid:2.16.840.1.113883.6.238",
                  "code": "2135-2",
                  "display": "Hispanic or Latino",
                  "userSelected": true
                }
              },
              {
                "url": "text",
                "valueString": "Hispanic or Latino"
              }
            ]
          }
        ],
        "identifier": [
          {
            "type": {
              "coding": [
                {
                  "system": "http://terminology.hl7.org/CodeSystem/v2-0203",
                  "code": "MR"
                }
              ]
            },
            "system": "https://bonnie-fhir.healthit.gov/",
            "value": "6359776b6aee9629c8298235"
          }
        ],
        "active": true,
        "name": [
          {
            "use": "usual",
            "family": "RiskFail",
            "given": [
              "RISKWBC24hours1MinB4EDOTTriageEnc"
            ]
          }
        ],
        "gender": "female",
        "birthDate": "2004-02-01"
      },
      "request": {
        "method": "PUT",
        "url": "Patient/505e8b0e-184c-49a1-ada0-225525add3b0"
      }
    },
    {
      "fullUrl": "https://madie.cms.gov/Observation/5e530cc0-3c80-48c5-b45a-d84a01ca7691",
      "resource": {
        "resourceType": "Observation",
        "id": "5e530cc0-3c80-48c5-b45a-d84a01ca7691",
        "meta": {
          "profile": [
            "http://hl7.org/fhir/us/qicore/StructureDefinition/qicore-observation"
          ]
        },
        "status": "final",
        "category": [
          {
            "coding": [
              {
                "system": "http://terminology.hl7.org/CodeSystem/observation-category",
                "code": "exam",
                "display": "exam",
                "userSelected": true
              }
            ]
          }
        ],
        "code": {
          "coding": [
            {
              "system": "http://loinc.org",
              "code": "93857-1"
            }
          ]
        },
        "subject": {
          "reference": "Patient/505e8b0e-184c-49a1-ada0-225525add3b0"
        },
        "effectiveDateTime": "2024-02-01T08:00:00.000+00:00",
        "valueDateTime": "2024-02-01T08:00:00+00:00"
      },
      "request": {
        "method": "PUT",
        "url": "Observation/5e530cc0-3c80-48c5-b45a-d84a01ca7691"
      }
    },
    {
      "fullUrl": "https://madie.cms.gov/Observation/80d7bb8f-69c6-4625-a8f5-30b5ba9acfa2",
      "resource": {
        "resourceType": "Observation",
        "id": "80d7bb8f-69c6-4625-a8f5-30b5ba9acfa2",
        "meta": {
          "profile": [
            "http://hl7.org/fhir/us/qicore/StructureDefinition/qicore-observation"
          ]
        },
        "status": "final",
        "category": [
          {
            "coding": [
              {
                "system": "http://terminology.hl7.org/CodeSystem/observation-category",
                "code": "exam",
                "display": "exam",
                "userSelected": true
              }
            ]
          }
        ],
        "code": {
          "coding": [
            {
              "system": "http://loinc.org",
              "code": "11884-4"
            }
          ]
        },
        "subject": {
          "reference": "Patient/505e8b0e-184c-49a1-ada0-225525add3b0"
        },
        "effectiveDateTime": "2024-02-01T08:00:00.000+00:00",
        "valueQuantity": {
          "value": 21,
          "system": "http://unitsofmeasure.org",
          "code": "wk"
        }
      },
      "request": {
        "method": "PUT",
        "url": "Observation/80d7bb8f-69c6-4625-a8f5-30b5ba9acfa2"
      }
    },
    {
      "fullUrl": "https://madie.cms.gov/Encounter/98c6c6f4-7b25-457b-bc8a-0e96cb4562d6",
      "resource": {
        "resourceType": "Encounter",
        "id": "98c6c6f4-7b25-457b-bc8a-0e96cb4562d6",
        "meta": {
          "profile": [
            "http://hl7.org/fhir/us/qicore/StructureDefinition/qicore-encounter"
          ]
        },
        "status": "finished",
        "class": {
          "system": "http://terminology.hl7.org/CodeSystem/v3-ActCode",
          "code": "IMP",
          "display": "inpatient encounter"
        },
        "type": [
          {
            "coding": [
              {
                "system": "http://snomed.info/sct",
                "code": "183452005"
              }
            ]
          }
        ],
        "subject": {
          "reference": "Patient/505e8b0e-184c-49a1-ada0-225525add3b0"
        },
        "period": {
          "start": "2024-02-01T08:00:00.000+00:00",
          "end": "2024-02-05T08:15:00.000+00:00"
        }
      },
      "request": {
        "method": "PUT",
        "url": "Encounter/98c6c6f4-7b25-457b-bc8a-0e96cb4562d6"
      }
    },
    {
      "fullUrl": "https://madie.cms.gov/Encounter/345d7a0b-5e25-4735-b034-a7556dc756cc",
      "resource": {
        "resourceType": "Encounter",
        "id": "345d7a0b-5e25-4735-b034-a7556dc756cc",
        "meta": {
          "profile": [
            "http://hl7.org/fhir/us/qicore/StructureDefinition/qicore-encounter"
          ]
        },
        "status": "finished",
        "class": {
          "system": "http://terminology.hl7.org/CodeSystem/v3-ActCode",
          "code": "EMER",
          "display": "emergency"
        },
        "type": [
          {
            "coding": [
              {
                "system": "http://snomed.info/sct",
                "code": "4525004"
              }
            ]
          }
        ],
        "subject": {
          "reference": "Patient/505e8b0e-184c-49a1-ada0-225525add3b0"
        },
        "period": {
          "start": "2024-02-01T07:00:00.000+00:00",
          "end": "2024-02-01T07:59:00.000+00:00"
        }
      },
      "request": {
        "method": "PUT",
        "url": "Encounter/345d7a0b-5e25-4735-b034-a7556dc756cc"
      }
    },
    {
      "fullUrl": "https://madie.cms.gov/Procedure/9e21aafd-fa20-4090-af6c-d0570a21ad13",
      "resource": {
        "resourceType": "Procedure",
        "id": "9e21aafd-fa20-4090-af6c-d0570a21ad13",
        "meta": {
          "profile": [
            "http://hl7.org/fhir/us/qicore/StructureDefinition/qicore-procedure"
          ]
        },
        "extension": [
          {
            "url": "http://hl7.org/fhir/us/qicore/StructureDefinition/qicore-recorded",
            "valueDateTime": "2024-02-04T09:35:00-04:00"
          }
        ],
        "status": "completed",
        "code": {
          "coding": [
            {
              "system": "http://snomed.info/sct",
              "code": "10745001"
            }
          ]
        },
        "subject": {
          "reference": "Patient/505e8b0e-184c-49a1-ada0-225525add3b0"
        },
        "performedPeriod": {
          "start": "2024-02-01T08:00:00.000+00:00",
          "end": "2024-02-05T08:15:00.000+00:00"
        }
      },
      "request": {
        "method": "PUT",
        "url": "Procedure/9e21aafd-fa20-4090-af6c-d0570a21ad13"
      }
    },
    {
      "fullUrl": "https://madie.cms.gov/Observation/8e51c7b3-1d96-467b-91ec-6e1d2504f528",
      "resource": {
        "resourceType": "Observation",
        "id": "8e51c7b3-1d96-467b-91ec-6e1d2504f528",
        "meta": {
          "profile": [
            "http://hl7.org/fhir/us/core/StructureDefinition/us-core-observation-lab"
          ]
        },
        "status": "final",
        "category": [
          {
            "coding": [
              {
                "system": "http://terminology.hl7.org/CodeSystem/observation-category",
                "code": "laboratory",
                "display": "laboratory",
                "userSelected": true
              }
            ]
          }
        ],
        "code": {
          "coding": [
            {
              "system": "http://loinc.org",
              "version": "2.73",
              "code": "26464-8",
              "display": "Leukocytes [#/volume] in Blood",
              "userSelected": true
            }
          ]
        },
        "subject": {
          "reference": "Patient/505e8b0e-184c-49a1-ada0-225525add3b0"
        },
        "effectiveDateTime": "2024-01-31T06:59:00.000+00:00",
        "issued": "2024-01-31T06:59:00.000+00:00",
        "valueQuantity": {
          "value": 20,
          "unit": "10*3/u"
        }
      },
      "request": {
        "method": "PUT",
        "url": "Observation/8e51c7b3-1d96-467b-91ec-6e1d2504f528"
      }
    },
    {
      "fullUrl": "https://madie.cms.gov/MeasureReport/f5d0fe79-1e2d-4fd8-8593-81c2a12b5f1c",
      "resource": {
        "resourceType": "MeasureReport",
        "id": "f5d0fe79-1e2d-4fd8-8593-81c2a12b5f1c",
        "meta": {
          "profile": [
            "http://hl7.org/fhir/us/cqfmeasures/StructureDefinition/test-case-cqfm"
          ]
        },
        "contained": [
          {
            "resourceType": "Parameters",
            "id": "25b3380e-1df1-4527-af64-a24c05f01628-parameters",
            "parameter": [
              {
                "name": "subject",
                "valueString": "505e8b0e-184c-49a1-ada0-225525add3b0"
              }
            ]
          }
        ],
        "extension": [
          {
            "url": "http://hl7.org/fhir/us/cqfmeasures/StructureDefinition/cqfm-inputParameters",
            "valueReference": {
              "reference": "#25b3380e-1df1-4527-af64-a24c05f01628-parameters"
            }
          },
          {
            "url": "http://hl7.org/fhir/us/cqfmeasures/StructureDefinition/cqfm-testCaseDescription",
            "valueMarkdown": "Patient with WBC that starts 24 hours and 1 minute before ED OB Triage encounter.  \n"
          }
        ],
        "modifierExtension": [
          {
            "url": "http://hl7.org/fhir/us/cqfmeasures/StructureDefinition/cqfm-isTestCase",
            "valueBoolean": true
          }
        ],
        "status": "complete",
        "type": "individual",
        "measure": "https://madie.cms.gov/Measure/SevereObstetricComplicationsFHIR",
        "period": {
          "start": "2024-01-01",
          "end": "2024-12-31"
        },
        "group": [
          {
            "population": [
              {
                "code": {
                  "coding": [
                    {
                      "system": "http://terminology.hl7.org/CodeSystem/measure-population",
                      "code": "initial-population",
                      "display": "Initial Population"
                    }
                  ]
                },
                "count": 1
              },
              {
                "code": {
                  "coding": [
                    {
                      "system": "http://terminology.hl7.org/CodeSystem/measure-population",
                      "code": "denominator",
                      "display": "Denominator"
                    }
                  ]
                },
                "count": 1
              },
              {
                "code": {
                  "coding": [
                    {
                      "system": "http://terminology.hl7.org/CodeSystem/measure-population",
                      "code": "denominator-exclusion",
                      "display": "Denominator Exclusion"
                    }
                  ]
                },
                "count": 0
              },
              {
                "code": {
                  "coding": [
                    {
                      "system": "http://terminology.hl7.org/CodeSystem/measure-population",
                      "code": "numerator",
                      "display": "Numerator"
                    }
                  ]
                },
                "count": 0
              }
            ]
          }
        ],
        "evaluatedResource": [
          {
            "reference": "Patient/505e8b0e-184c-49a1-ada0-225525add3b0"
          },
          {
            "reference": "Observation/5e530cc0-3c80-48c5-b45a-d84a01ca7691"
          },
          {
            "reference": "Observation/80d7bb8f-69c6-4625-a8f5-30b5ba9acfa2"
          },
          {
            "reference": "Encounter/98c6c6f4-7b25-457b-bc8a-0e96cb4562d6"
          },
          {
            "reference": "Encounter/345d7a0b-5e25-4735-b034-a7556dc756cc"
          },
          {
            "reference": "Procedure/9e21aafd-fa20-4090-af6c-d0570a21ad13"
          },
          {
            "reference": "Observation/8e51c7b3-1d96-467b-91ec-6e1d2504f528"
          }
        ]
      },
      "request": {
        "method": "PUT",
        "url": "MeasureReport/f5d0fe79-1e2d-4fd8-8593-81c2a12b5f1c"
      }
    }
  ]
}