{
  "resourceType": "Bundle",
  "id": "63594c7a6aee9629c82981df",
  "type": "transaction",
  "entry": [
    {
      "fullUrl": "https://madie.cms.gov/Patient/3de3bd5f-9d29-4a3a-9d3a-5e3afc86f7fd",
      "resource": {
        "resourceType": "Patient",
        "id": "3de3bd5f-9d29-4a3a-9d3a-5e3afc86f7fd",
        "meta": {
          "profile": [
            "http://hl7.org/fhir/us/qicore/StructureDefinition/qicore-patient"
          ]
        },
        "text": {
          "status": "generated",
          "div": "<div xmlns=\"http://www.w3.org/1999/xhtml\"><div class=\"hapiHeaderText\">Risk_BariatricSurgery<b>RISKPass </b></div><table class=\"hapiPropertyTable\"><tbody><tr><td>Date of birth</td><td><span>01 February 2004</span></td></tr></tbody></table></div>"
        },
        "extension": [
          {
            "url": "http://hl7.org/fhir/us/core/StructureDefinition/us-core-race",
            "extension": [
              {
                "url": "ombCategory",
                "valueCoding": {
                  "system": "urn:oid:2.16.840.1.113883.6.238",
                  "code": "1002-5",
                  "display": "American Indian or Alaska Native",
                  "userSelected": true
                }
              },
              {
                "url": "text",
                "valueString": "American Indian or Alaska Native"
              }
            ]
          },
          {
            "url": "http://hl7.org/fhir/us/core/StructureDefinition/us-core-ethnicity",
            "extension": [
              {
                "url": "ombCategory",
                "valueCoding": {
                  "system": "urn:oid:2.16.840.1.113883.6.238",
                  "code": "2135-2",
                  "display": "Hispanic or Latino",
                  "userSelected": true
                }
              },
              {
                "url": "text",
                "valueString": "Hispanic or Latino"
              }
            ]
          }
        ],
        "identifier": [
          {
            "type": {
              "coding": [
                {
                  "system": "http://terminology.hl7.org/CodeSystem/v2-0203",
                  "code": "MR"
                }
              ]
            },
            "system": "https://bonnie-fhir.healthit.gov/",
            "value": "63594c7a6aee9629c82981df"
          }
        ],
        "active": true,
        "name": [
          {
            "use": "usual",
            "family": "RiskPass",
            "given": [
              "Risk_BariatricSurgery"
            ]
          }
        ],
        "gender": "female",
        "birthDate": "2004-02-01"
      },
      "request": {
        "method": "PUT",
        "url": "Patient/3de3bd5f-9d29-4a3a-9d3a-5e3afc86f7fd"
      }
    },
    {
      "fullUrl": "https://madie.cms.gov/Observation/3fa59177-af8b-431b-afa9-f58e9abab469",
      "resource": {
        "resourceType": "Observation",
        "id": "3fa59177-af8b-431b-afa9-f58e9abab469",
        "meta": {
          "profile": [
            "http://hl7.org/fhir/us/qicore/StructureDefinition/qicore-observation"
          ]
        },
        "status": "final",
        "category": [
          {
            "coding": [
              {
                "system": "http://terminology.hl7.org/CodeSystem/observation-category",
                "code": "exam",
                "display": "exam",
                "userSelected": true
              }
            ]
          }
        ],
        "code": {
          "coding": [
            {
              "system": "http://loinc.org",
              "code": "93857-1"
            }
          ]
        },
        "subject": {
          "reference": "Patient/3de3bd5f-9d29-4a3a-9d3a-5e3afc86f7fd"
        },
        "effectiveDateTime": "2024-02-01T08:00:00.000+00:00",
        "valueDateTime": "2024-02-01T08:00:00+00:00"
      },
      "request": {
        "method": "PUT",
        "url": "Observation/3fa59177-af8b-431b-afa9-f58e9abab469"
      }
    },
    {
      "fullUrl": "https://madie.cms.gov/Observation/57167038-fd3e-47a1-a804-b84b5c22e3c9",
      "resource": {
        "resourceType": "Observation",
        "id": "57167038-fd3e-47a1-a804-b84b5c22e3c9",
        "meta": {
          "profile": [
            "http://hl7.org/fhir/us/qicore/StructureDefinition/qicore-observation"
          ]
        },
        "status": "final",
        "category": [
          {
            "coding": [
              {
                "system": "http://terminology.hl7.org/CodeSystem/observation-category",
                "code": "exam",
                "display": "exam",
                "userSelected": true
              }
            ]
          }
        ],
        "code": {
          "coding": [
            {
              "system": "http://loinc.org",
              "code": "11778-8"
            }
          ]
        },
        "subject": {
          "reference": "Patient/3de3bd5f-9d29-4a3a-9d3a-5e3afc86f7fd"
        },
        "effectiveDateTime": "2024-02-01T08:00:00.000+00:00",
        "valueDateTime": "2024-02-01T00:00:00.000+00:00"
      },
      "request": {
        "method": "PUT",
        "url": "Observation/57167038-fd3e-47a1-a804-b84b5c22e3c9"
      }
    },
    {
      "fullUrl": "https://madie.cms.gov/Encounter/8c93e698-d225-4f93-88bd-97248906357a",
      "resource": {
        "resourceType": "Encounter",
        "id": "8c93e698-d225-4f93-88bd-97248906357a",
        "meta": {
          "profile": [
            "http://hl7.org/fhir/us/qicore/StructureDefinition/qicore-encounter"
          ]
        },
        "status": "finished",
        "class": {
          "system": "http://terminology.hl7.org/CodeSystem/v3-ActCode",
          "code": "IMP",
          "display": "inpatient encounter"
        },
        "type": [
          {
            "coding": [
              {
                "system": "http://snomed.info/sct",
                "code": "183452005"
              }
            ]
          }
        ],
        "subject": {
          "reference": "Patient/3de3bd5f-9d29-4a3a-9d3a-5e3afc86f7fd"
        },
        "period": {
          "start": "2024-02-01T08:00:00.000Z",
          "end": "2024-02-05T08:15:00.000Z"
        },
        "diagnosis": [
          {
            "extension": [
              {
                "url": "http://hl7.org/fhir/us/qicore/StructureDefinition/qicore-encounter-diagnosisPresentOnAdmission",
                "valueCodeableConcept": {
                  "coding": [
                    {
                      "system": "https://www.cms.gov/Medicare/Medicare-Fee-for-Service-Payment/HospitalAcqCond/Coding",
                      "code": "Y"
                    }
                  ]
                }
              }
            ],
            "condition": {
              "reference": "Condition/8d2eb410-33e8-438c-b323-6bd45e4cff86"
            }
          },
          {
            "extension": [
              {
                "url": "http://hl7.org/fhir/us/qicore/StructureDefinition/qicore-encounter-diagnosisPresentOnAdmission",
                "valueCodeableConcept": {
                  "coding": [
                    {
                      "system": "https://www.cms.gov/Medicare/Medicare-Fee-for-Service-Payment/HospitalAcqCond/Coding",
                      "code": "N"
                    }
                  ]
                }
              }
            ],
            "condition": {
              "reference": "Condition/b9249d84-394b-4620-92dc-a4e895278539"
            }
          }
        ]
      },
      "request": {
        "method": "PUT",
        "url": "Encounter/8c93e698-d225-4f93-88bd-97248906357a"
      }
    },
    {
      "fullUrl": "https://madie.cms.gov/Procedure/a3d6e5bd-76c7-4c43-91e4-e54ce9bd28ea",
      "resource": {
        "resourceType": "Procedure",
        "id": "a3d6e5bd-76c7-4c43-91e4-e54ce9bd28ea",
        "meta": {
          "profile": [
            "http://hl7.org/fhir/us/qicore/StructureDefinition/qicore-procedure"
          ]
        },
        "extension": [
          {
            "url": "http://hl7.org/fhir/us/qicore/StructureDefinition/qicore-recorded",
            "valueDateTime": "2013-04-05T09:35:00-04:00"
          }
        ],
        "status": "completed",
        "code": {
          "coding": [
            {
              "system": "http://snomed.info/sct",
              "code": "10745001"
            }
          ]
        },
        "subject": {
          "reference": "Patient/3de3bd5f-9d29-4a3a-9d3a-5e3afc86f7fd"
        },
        "performedDateTime": "2024-02-01T08:00:00.000+00:00"
      },
      "request": {
        "method": "PUT",
        "url": "Procedure/a3d6e5bd-76c7-4c43-91e4-e54ce9bd28ea"
      }
    },
    {
      "fullUrl": "https://madie.cms.gov/Condition/b9249d84-394b-4620-92dc-a4e895278539",
      "resource": {
        "resourceType": "Condition",
        "id": "b9249d84-394b-4620-92dc-a4e895278539",
        "meta": {
          "profile": [
            "http://hl7.org/fhir/us/qicore/StructureDefinition/qicore-condition"
          ]
        },
        "category": [
          {
            "coding": [
              {
                "system": "http://terminology.hl7.org/CodeSystem/condition-category",
                "code": "encounter-diagnosis",
                "display": "Encounter Diagnosis"
              }
            ]
          }
        ],
        "code": {
          "coding": [
            {
              "system": "http://hl7.org/fhir/sid/icd-10-cm",
              "version": "2023",
              "code": "A32.7",
              "display": "Listerial sepsis",
              "userSelected": true
            }
          ]
        },
        "subject": {
          "reference": "Patient/3de3bd5f-9d29-4a3a-9d3a-5e3afc86f7fd"
        },
        "recordedDate": "2024-10-26T08:00:00.000+00:00"
      },
      "request": {
        "method": "PUT",
        "url": "Condition/b9249d84-394b-4620-92dc-a4e895278539"
      }
    },
    {
      "fullUrl": "https://madie.cms.gov/Condition/8d2eb410-33e8-438c-b323-6bd45e4cff86",
      "resource": {
        "resourceType": "Condition",
        "id": "8d2eb410-33e8-438c-b323-6bd45e4cff86",
        "meta": {
          "profile": [
            "http://hl7.org/fhir/us/qicore/StructureDefinition/qicore-condition"
          ]
        },
        "category": [
          {
            "coding": [
              {
                "system": "http://terminology.hl7.org/CodeSystem/condition-category",
                "code": "encounter-diagnosis",
                "display": "Encounter Diagnosis"
              }
            ]
          }
        ],
        "code": {
          "coding": [
            {
              "system": "http://hl7.org/fhir/sid/icd-10-cm",
              "version": "2023",
              "code": "O99.840",
              "display": "Bariatric Surgery-81e0",
              "userSelected": true
            }
          ]
        },
        "subject": {
          "reference": "Patient/3de3bd5f-9d29-4a3a-9d3a-5e3afc86f7fd"
        },
        "recordedDate": "2024-10-26T08:00:00.000+00:00"
      },
      "request": {
        "method": "PUT",
        "url": "Condition/8d2eb410-33e8-438c-b323-6bd45e4cff86"
      }
    },
    {
      "fullUrl": "https://madie.cms.gov/MeasureReport/8a405c97-a2ac-4f95-951c-73fbbd60e069",
      "resource": {
        "resourceType": "MeasureReport",
        "id": "8a405c97-a2ac-4f95-951c-73fbbd60e069",
        "meta": {
          "profile": [
            "http://hl7.org/fhir/us/cqfmeasures/StructureDefinition/test-case-cqfm"
          ]
        },
        "contained": [
          {
            "resourceType": "Parameters",
            "id": "2432f3e1-4783-41a2-869d-02167be0725a-parameters",
            "parameter": [
              {
                "name": "subject",
                "valueString": "3de3bd5f-9d29-4a3a-9d3a-5e3afc86f7fd"
              }
            ]
          }
        ],
        "extension": [
          {
            "url": "http://hl7.org/fhir/us/cqfmeasures/StructureDefinition/cqfm-inputParameters",
            "valueReference": {
              "reference": "#2432f3e1-4783-41a2-869d-02167be0725a-parameters"
            }
          },
          {
            "url": "http://hl7.org/fhir/us/cqfmeasures/StructureDefinition/cqfm-testCaseDescription",
            "valueMarkdown": "Risk variable of bariatric surgery.\n\n"
          }
        ],
        "modifierExtension": [
          {
            "url": "http://hl7.org/fhir/us/cqfmeasures/StructureDefinition/cqfm-isTestCase",
            "valueBoolean": true
          }
        ],
        "status": "complete",
        "type": "individual",
        "measure": "https://madie.cms.gov/Measure/SevereObstetricComplicationsFHIR",
        "period": {
          "start": "2024-01-01",
          "end": "2024-12-31"
        },
        "group": [
          {
            "population": [
              {
                "code": {
                  "coding": [
                    {
                      "system": "http://terminology.hl7.org/CodeSystem/measure-population",
                      "code": "initial-population",
                      "display": "Initial Population"
                    }
                  ]
                },
                "count": 1
              },
              {
                "code": {
                  "coding": [
                    {
                      "system": "http://terminology.hl7.org/CodeSystem/measure-population",
                      "code": "denominator",
                      "display": "Denominator"
                    }
                  ]
                },
                "count": 1
              },
              {
                "code": {
                  "coding": [
                    {
                      "system": "http://terminology.hl7.org/CodeSystem/measure-population",
                      "code": "denominator-exclusion",
                      "display": "Denominator Exclusion"
                    }
                  ]
                },
                "count": 0
              },
              {
                "code": {
                  "coding": [
                    {
                      "system": "http://terminology.hl7.org/CodeSystem/measure-population",
                      "code": "numerator",
                      "display": "Numerator"
                    }
                  ]
                },
                "count": 1
              }
            ]
          }
        ],
        "evaluatedResource": [
          {
            "reference": "Patient/3de3bd5f-9d29-4a3a-9d3a-5e3afc86f7fd"
          },
          {
            "reference": "Observation/3fa59177-af8b-431b-afa9-f58e9abab469"
          },
          {
            "reference": "Observation/57167038-fd3e-47a1-a804-b84b5c22e3c9"
          },
          {
            "reference": "Encounter/8c93e698-d225-4f93-88bd-97248906357a"
          },
          {
            "reference": "Procedure/a3d6e5bd-76c7-4c43-91e4-e54ce9bd28ea"
          },
          {
            "reference": "Condition/b9249d84-394b-4620-92dc-a4e895278539"
          },
          {
            "reference": "Condition/8d2eb410-33e8-438c-b323-6bd45e4cff86"
          }
        ]
      },
      "request": {
        "method": "PUT",
        "url": "MeasureReport/8a405c97-a2ac-4f95-951c-73fbbd60e069"
      }
    }
  ]
}