{
  "resourceType": "Bundle",
  "id": "633b3f9e0968f80122503cd3",
  "type": "transaction",
  "entry": [
    {
      "fullUrl": "https://madie.cms.gov/Patient/11915e4b-c33a-4ee8-b938-6ca2c93a4a80",
      "resource": {
        "resourceType": "Patient",
        "id": "11915e4b-c33a-4ee8-b938-6ca2c93a4a80",
        "meta": {
          "profile": [
            "http://hl7.org/fhir/us/qicore/StructureDefinition/qicore-patient"
          ]
        },
        "text": {
          "status": "generated",
          "div": "<div xmlns=\"http://www.w3.org/1999/xhtml\"><div class=\"hapiHeaderText\">LastAssPrfEstDELRelvTm_24Hr00Min00Sec_B4DELRsltDtTime <b>DENOMPASS </b></div><table class=\"hapiPropertyTable\"><tbody><tr><td>Date of birth</td><td><span>01 February 2004</span></td></tr></tbody></table></div>"
        },
        "extension": [
          {
            "url": "http://hl7.org/fhir/us/core/StructureDefinition/us-core-race",
            "extension": [
              {
                "url": "ombCategory",
                "valueCoding": {
                  "system": "urn:oid:2.16.840.1.113883.6.238",
                  "code": "1002-5",
                  "display": "American Indian or Alaska Native",
                  "userSelected": true
                }
              },
              {
                "url": "text",
                "valueString": "American Indian or Alaska Native"
              }
            ]
          },
          {
            "url": "http://hl7.org/fhir/us/core/StructureDefinition/us-core-ethnicity",
            "extension": [
              {
                "url": "ombCategory",
                "valueCoding": {
                  "system": "urn:oid:2.16.840.1.113883.6.238",
                  "code": "2135-2",
                  "display": "Hispanic or Latino",
                  "userSelected": true
                }
              },
              {
                "url": "text",
                "valueString": "Hispanic or Latino"
              }
            ]
          }
        ],
        "identifier": [
          {
            "type": {
              "coding": [
                {
                  "system": "http://terminology.hl7.org/CodeSystem/v2-0203",
                  "code": "MR"
                }
              ]
            },
            "system": "https://bonnie-fhir.healthit.gov/",
            "value": "633b3f9e0968f80122503cd3"
          }
        ],
        "active": true,
        "name": [
          {
            "use": "usual",
            "family": "DENOMPass",
            "given": [
              "LastAssPrfEstDELRelvTm_24Hr00Min00Sec_B4DELRsltDtTime"
            ]
          }
        ],
        "gender": "female",
        "birthDate": "2004-02-01"
      },
      "request": {
        "method": "PUT",
        "url": "Patient/11915e4b-c33a-4ee8-b938-6ca2c93a4a80"
      }
    },
    {
      "fullUrl": "https://madie.cms.gov/Observation/9aca528b-2587-4a81-bb7f-ca1e2f5588af",
      "resource": {
        "resourceType": "Observation",
        "id": "9aca528b-2587-4a81-bb7f-ca1e2f5588af",
        "meta": {
          "profile": [
            "http://hl7.org/fhir/us/qicore/StructureDefinition/qicore-observation"
          ]
        },
        "status": "final",
        "category": [
          {
            "coding": [
              {
                "system": "http://terminology.hl7.org/CodeSystem/observation-category",
                "code": "exam",
                "display": "exam",
                "userSelected": true
              }
            ]
          }
        ],
        "code": {
          "coding": [
            {
              "system": "http://loinc.org",
              "code": "93857-1"
            }
          ]
        },
        "subject": {
          "reference": "Patient/11915e4b-c33a-4ee8-b938-6ca2c93a4a80"
        },
        "effectiveDateTime": "2024-02-01T08:00:00.000+00:00",
        "valueDateTime": "2024-02-01T08:00:00+00:00"
      },
      "request": {
        "method": "PUT",
        "url": "Observation/9aca528b-2587-4a81-bb7f-ca1e2f5588af"
      }
    },
    {
      "fullUrl": "https://madie.cms.gov/Observation/7b2ee0bb-3c5d-42b4-bf85-21875c52dc1c",
      "resource": {
        "resourceType": "Observation",
        "id": "7b2ee0bb-3c5d-42b4-bf85-21875c52dc1c",
        "meta": {
          "profile": [
            "http://hl7.org/fhir/us/qicore/StructureDefinition/qicore-observation"
          ]
        },
        "status": "final",
        "category": [
          {
            "coding": [
              {
                "system": "http://terminology.hl7.org/CodeSystem/observation-category",
                "code": "exam",
                "display": "exam",
                "userSelected": true
              }
            ]
          }
        ],
        "code": {
          "coding": [
            {
              "system": "http://loinc.org",
              "code": "11778-8"
            }
          ]
        },
        "subject": {
          "reference": "Patient/11915e4b-c33a-4ee8-b938-6ca2c93a4a80"
        },
        "effectiveDateTime": "2024-01-31T08:00:00.000+00:00",
        "valueDateTime": "2024-02-01T08:00:00.000+00:00"
      },
      "request": {
        "method": "PUT",
        "url": "Observation/7b2ee0bb-3c5d-42b4-bf85-21875c52dc1c"
      }
    },
    {
      "fullUrl": "https://madie.cms.gov/Encounter/56676cf4-d0c5-482a-a124-5567466f78e7",
      "resource": {
        "resourceType": "Encounter",
        "id": "56676cf4-d0c5-482a-a124-5567466f78e7",
        "meta": {
          "profile": [
            "http://hl7.org/fhir/us/qicore/StructureDefinition/qicore-encounter"
          ]
        },
        "status": "finished",
        "class": {
          "system": "http://terminology.hl7.org/CodeSystem/v3-ActCode",
          "code": "IMP",
          "display": "inpatient encounter"
        },
        "type": [
          {
            "coding": [
              {
                "system": "http://snomed.info/sct",
                "code": "183452005"
              }
            ]
          }
        ],
        "subject": {
          "reference": "Patient/11915e4b-c33a-4ee8-b938-6ca2c93a4a80"
        },
        "period": {
          "start": "2024-02-01T08:00:00.000Z",
          "end": "2024-02-05T08:15:00.000Z"
        }
      },
      "request": {
        "method": "PUT",
        "url": "Encounter/56676cf4-d0c5-482a-a124-5567466f78e7"
      }
    },
    {
      "fullUrl": "https://madie.cms.gov/Procedure/b4544883-dcfd-4846-883e-bb9db279214e",
      "resource": {
        "resourceType": "Procedure",
        "id": "b4544883-dcfd-4846-883e-bb9db279214e",
        "meta": {
          "profile": [
            "http://hl7.org/fhir/us/qicore/StructureDefinition/qicore-procedure"
          ]
        },
        "extension": [
          {
            "url": "http://hl7.org/fhir/us/qicore/StructureDefinition/qicore-recorded",
            "valueDateTime": "2013-04-05T09:35:00-04:00"
          }
        ],
        "status": "completed",
        "code": {
          "coding": [
            {
              "system": "http://snomed.info/sct",
              "code": "10745001"
            }
          ]
        },
        "subject": {
          "reference": "Patient/11915e4b-c33a-4ee8-b938-6ca2c93a4a80"
        },
        "performedPeriod": {
          "start": "2024-02-01T08:00:00.000Z",
          "end": "2024-02-05T08:15:00.000Z"
        }
      },
      "request": {
        "method": "PUT",
        "url": "Procedure/b4544883-dcfd-4846-883e-bb9db279214e"
      }
    },
    {
      "fullUrl": "https://madie.cms.gov/Coverage/0179ea8e-38e8-4725-b34c-84286ec78d7a",
      "resource": {
        "resourceType": "Coverage",
        "id": "0179ea8e-38e8-4725-b34c-84286ec78d7a",
        "meta": {
          "profile": [
            "http://hl7.org/fhir/us/qicore/StructureDefinition/qicore-coverage"
          ]
        },
        "status": "active",
        "beneficiary": {
          "reference": "Patient/11915e4b-c33a-4ee8-b938-6ca2c93a4a80"
        },
        "payor": [
          {
            "reference": "Organization/9c327169-54d2-4cd3-81ea-94b60a7de912"
          }
        ]
      },
      "request": {
        "method": "PUT",
        "url": "Coverage/0179ea8e-38e8-4725-b34c-84286ec78d7a"
      }
    },
    {
      "fullUrl": "https://madie.cms.gov/Organization/9c327169-54d2-4cd3-81ea-94b60a7de912",
      "resource": {
        "resourceType": "Organization",
        "id": "9c327169-54d2-4cd3-81ea-94b60a7de912",
        "meta": {
          "profile": [
            "http://hl7.org/fhir/us/qicore/StructureDefinition/qicore-organization"
          ]
        },
        "identifier": [
          {
            "use": "temp",
            "system": "urn:oid:2.16.840.1.113883.4.4",
            "value": "21-3259825"
          }
        ],
        "active": true,
        "type": [
          {
            "coding": [
              {
                "system": "http://terminology.hl7.org/CodeSystem/organization-type",
                "code": "pay",
                "display": "Payer"
              }
            ]
          }
        ],
        "name": "Blue Cross Blue Shield of Texas",
        "telecom": [
          {
            "system": "phone",
            "value": "(+1) 972-766-6900"
          }
        ],
        "address": [
          {
            "use": "billing",
            "type": "postal",
            "line": [
              "P.O. Box 660044"
            ],
            "city": "Dallas",
            "state": "TX",
            "postalCode": "75266-0044",
            "country": "USA"
          }
        ]
      },
      "request": {
        "method": "PUT",
        "url": "Organization/9c327169-54d2-4cd3-81ea-94b60a7de912"
      }
    },
    {
      "fullUrl": "https://madie.cms.gov/Practitioner/9a415679-0a7c-4fdf-82de-aebcfad4a09f",
      "resource": {
        "resourceType": "Practitioner",
        "id": "9a415679-0a7c-4fdf-82de-aebcfad4a09f",
        "identifier": [
          {
            "system": "http://hl7.org/fhir/sid/us-npi",
            "value": "123456"
          }
        ],
        "name": [
          {
            "family": "Evil",
            "prefix": [
              "Dr"
            ]
          }
        ]
      },
      "request": {
        "method": "PUT",
        "url": "Practitioner/9a415679-0a7c-4fdf-82de-aebcfad4a09f"
      }
    },
    {
      "fullUrl": "https://madie.cms.gov/MeasureReport/1a77f140-bf72-4b3d-9609-11e4e3b18d12",
      "resource": {
        "resourceType": "MeasureReport",
        "id": "1a77f140-bf72-4b3d-9609-11e4e3b18d12",
        "meta": {
          "profile": [
            "http://hl7.org/fhir/us/cqfmeasures/StructureDefinition/test-case-cqfm"
          ]
        },
        "contained": [
          {
            "resourceType": "Parameters",
            "id": "3badb71e-d451-478b-b7b4-65179a0f0f57-parameters",
            "parameter": [
              {
                "name": "subject",
                "valueString": "11915e4b-c33a-4ee8-b938-6ca2c93a4a80"
              }
            ]
          }
        ],
        "extension": [
          {
            "url": "http://hl7.org/fhir/us/cqfmeasures/StructureDefinition/cqfm-inputParameters",
            "valueReference": {
              "reference": "#3badb71e-d451-478b-b7b4-65179a0f0f57-parameters"
            }
          },
          {
            "url": "http://hl7.org/fhir/us/cqfmeasures/StructureDefinition/cqfm-testCaseDescription",
            "valueMarkdown": "Last assessment Performed, Estimated Delivery Date, Relevant time, prior to encounter\n"
          }
        ],
        "modifierExtension": [
          {
            "url": "http://hl7.org/fhir/us/cqfmeasures/StructureDefinition/cqfm-isTestCase",
            "valueBoolean": true
          }
        ],
        "status": "complete",
        "type": "individual",
        "measure": "https://madie.cms.gov/Measure/SevereObstetricComplicationsFHIR",
        "period": {
          "start": "2024-01-01",
          "end": "2024-12-31"
        },
        "group": [
          {
            "population": [
              {
                "code": {
                  "coding": [
                    {
                      "system": "http://terminology.hl7.org/CodeSystem/measure-population",
                      "code": "initial-population",
                      "display": "Initial Population"
                    }
                  ]
                },
                "count": 1
              },
              {
                "code": {
                  "coding": [
                    {
                      "system": "http://terminology.hl7.org/CodeSystem/measure-population",
                      "code": "denominator",
                      "display": "Denominator"
                    }
                  ]
                },
                "count": 1
              },
              {
                "code": {
                  "coding": [
                    {
                      "system": "http://terminology.hl7.org/CodeSystem/measure-population",
                      "code": "denominator-exclusion",
                      "display": "Denominator Exclusion"
                    }
                  ]
                },
                "count": 0
              },
              {
                "code": {
                  "coding": [
                    {
                      "system": "http://terminology.hl7.org/CodeSystem/measure-population",
                      "code": "numerator",
                      "display": "Numerator"
                    }
                  ]
                },
                "count": 0
              }
            ]
          }
        ],
        "evaluatedResource": [
          {
            "reference": "Patient/11915e4b-c33a-4ee8-b938-6ca2c93a4a80"
          },
          {
            "reference": "Observation/9aca528b-2587-4a81-bb7f-ca1e2f5588af"
          },
          {
            "reference": "Observation/7b2ee0bb-3c5d-42b4-bf85-21875c52dc1c"
          },
          {
            "reference": "Encounter/56676cf4-d0c5-482a-a124-5567466f78e7"
          },
          {
            "reference": "Procedure/b4544883-dcfd-4846-883e-bb9db279214e"
          },
          {
            "reference": "Coverage/0179ea8e-38e8-4725-b34c-84286ec78d7a"
          },
          {
            "reference": "Organization/9c327169-54d2-4cd3-81ea-94b60a7de912"
          },
          {
            "reference": "Practitioner/9a415679-0a7c-4fdf-82de-aebcfad4a09f"
          }
        ]
      },
      "request": {
        "method": "PUT",
        "url": "MeasureReport/1a77f140-bf72-4b3d-9609-11e4e3b18d12"
      }
    }
  ]
}