{
  "resourceType": "Bundle",
  "id": "63594c7a6aee9629c82981df",
  "type": "transaction",
  "entry": [
    {
      "fullUrl": "https://madie.cms.gov/Patient/db719e86-c19c-4678-b7d6-e0089b495160",
      "resource": {
        "resourceType": "Patient",
        "id": "db719e86-c19c-4678-b7d6-e0089b495160",
        "meta": {
          "profile": [
            "http://hl7.org/fhir/us/qicore/StructureDefinition/qicore-patient"
          ]
        },
        "text": {
          "status": "generated",
          "div": "<div xmlns=\"http://www.w3.org/1999/xhtml\"><div class=\"hapiHeaderText\">Risk_PreviousCesarean<b>RISKPass </b></div><table class=\"hapiPropertyTable\"><tbody><tr><td>Date of birth</td><td><span>01 February 2004</span></td></tr></tbody></table></div>"
        },
        "extension": [
          {
            "url": "http://hl7.org/fhir/us/core/StructureDefinition/us-core-race",
            "extension": [
              {
                "url": "ombCategory",
                "valueCoding": {
                  "system": "urn:oid:2.16.840.1.113883.6.238",
                  "code": "1002-5",
                  "display": "American Indian or Alaska Native",
                  "userSelected": true
                }
              },
              {
                "url": "text",
                "valueString": "American Indian or Alaska Native"
              }
            ]
          },
          {
            "url": "http://hl7.org/fhir/us/core/StructureDefinition/us-core-ethnicity",
            "extension": [
              {
                "url": "ombCategory",
                "valueCoding": {
                  "system": "urn:oid:2.16.840.1.113883.6.238",
                  "code": "2135-2",
                  "display": "Hispanic or Latino",
                  "userSelected": true
                }
              },
              {
                "url": "text",
                "valueString": "Hispanic or Latino"
              }
            ]
          }
        ],
        "identifier": [
          {
            "type": {
              "coding": [
                {
                  "system": "http://terminology.hl7.org/CodeSystem/v2-0203",
                  "code": "MR"
                }
              ]
            },
            "system": "https://bonnie-fhir.healthit.gov/",
            "value": "63594c7a6aee9629c82981df"
          }
        ],
        "active": true,
        "name": [
          {
            "use": "usual",
            "family": "RiskPass",
            "given": [
              "Risk_PreviousCesarean"
            ]
          }
        ],
        "gender": "female",
        "birthDate": "2004-02-01"
      },
      "request": {
        "method": "PUT",
        "url": "Patient/db719e86-c19c-4678-b7d6-e0089b495160"
      }
    },
    {
      "fullUrl": "https://madie.cms.gov/Observation/144172c4-9db5-41c4-8bb7-09b54aefd8c1",
      "resource": {
        "resourceType": "Observation",
        "id": "144172c4-9db5-41c4-8bb7-09b54aefd8c1",
        "meta": {
          "profile": [
            "http://hl7.org/fhir/us/qicore/StructureDefinition/qicore-observation"
          ]
        },
        "status": "final",
        "category": [
          {
            "coding": [
              {
                "system": "http://terminology.hl7.org/CodeSystem/observation-category",
                "code": "exam",
                "display": "exam",
                "userSelected": true
              }
            ]
          }
        ],
        "code": {
          "coding": [
            {
              "system": "http://loinc.org",
              "code": "93857-1"
            }
          ]
        },
        "subject": {
          "reference": "Patient/db719e86-c19c-4678-b7d6-e0089b495160"
        },
        "effectiveDateTime": "2024-02-01T08:00:00.000+00:00",
        "valueDateTime": "2024-02-01T08:00:00+00:00"
      },
      "request": {
        "method": "PUT",
        "url": "Observation/144172c4-9db5-41c4-8bb7-09b54aefd8c1"
      }
    },
    {
      "fullUrl": "https://madie.cms.gov/Observation/28ee4feb-3aae-499d-86d8-8804ad105cf1",
      "resource": {
        "resourceType": "Observation",
        "id": "28ee4feb-3aae-499d-86d8-8804ad105cf1",
        "meta": {
          "profile": [
            "http://hl7.org/fhir/us/qicore/StructureDefinition/qicore-observation"
          ]
        },
        "status": "final",
        "category": [
          {
            "coding": [
              {
                "system": "http://terminology.hl7.org/CodeSystem/observation-category",
                "code": "exam",
                "display": "exam",
                "userSelected": true
              }
            ]
          }
        ],
        "code": {
          "coding": [
            {
              "system": "http://loinc.org",
              "code": "11778-8"
            }
          ]
        },
        "subject": {
          "reference": "Patient/db719e86-c19c-4678-b7d6-e0089b495160"
        },
        "effectiveDateTime": "2024-02-01T08:00:00.000+00:00",
        "valueDateTime": "2024-02-01T00:00:00.000+00:00"
      },
      "request": {
        "method": "PUT",
        "url": "Observation/28ee4feb-3aae-499d-86d8-8804ad105cf1"
      }
    },
    {
      "fullUrl": "https://madie.cms.gov/Encounter/54972c1c-a585-4796-b395-acc0e5feec8b",
      "resource": {
        "resourceType": "Encounter",
        "id": "54972c1c-a585-4796-b395-acc0e5feec8b",
        "meta": {
          "profile": [
            "http://hl7.org/fhir/us/qicore/StructureDefinition/qicore-encounter"
          ]
        },
        "status": "finished",
        "class": {
          "system": "http://terminology.hl7.org/CodeSystem/v3-ActCode",
          "code": "IMP",
          "display": "inpatient encounter"
        },
        "type": [
          {
            "coding": [
              {
                "system": "http://snomed.info/sct",
                "code": "183452005"
              }
            ]
          }
        ],
        "subject": {
          "reference": "Patient/db719e86-c19c-4678-b7d6-e0089b495160"
        },
        "period": {
          "start": "2024-02-01T08:00:00.000Z",
          "end": "2024-02-05T08:15:00.000Z"
        },
        "diagnosis": [
          {
            "extension": [
              {
                "url": "http://hl7.org/fhir/us/qicore/StructureDefinition/qicore-encounter-diagnosisPresentOnAdmission",
                "valueCodeableConcept": {
                  "coding": [
                    {
                      "system": "https://www.cms.gov/Medicare/Medicare-Fee-for-Service-Payment/HospitalAcqCond/Coding",
                      "code": "Y"
                    }
                  ]
                }
              }
            ],
            "condition": {
              "reference": "Condition/bf1ecdb9-7800-4ed7-bc31-6b95fbc02736"
            }
          },
          {
            "extension": [
              {
                "url": "http://hl7.org/fhir/us/qicore/StructureDefinition/qicore-encounter-diagnosisPresentOnAdmission",
                "valueCodeableConcept": {
                  "coding": [
                    {
                      "system": "https://www.cms.gov/Medicare/Medicare-Fee-for-Service-Payment/HospitalAcqCond/Coding",
                      "code": "N"
                    }
                  ]
                }
              }
            ],
            "condition": {
              "reference": "Condition/1002a1c0-b1ea-4358-bd6a-28ecf6b2a29b"
            }
          }
        ]
      },
      "request": {
        "method": "PUT",
        "url": "Encounter/54972c1c-a585-4796-b395-acc0e5feec8b"
      }
    },
    {
      "fullUrl": "https://madie.cms.gov/Procedure/6d11bbba-0dfb-45a4-83e5-0b8257b79e24",
      "resource": {
        "resourceType": "Procedure",
        "id": "6d11bbba-0dfb-45a4-83e5-0b8257b79e24",
        "meta": {
          "profile": [
            "http://hl7.org/fhir/us/qicore/StructureDefinition/qicore-procedure"
          ]
        },
        "extension": [
          {
            "url": "http://hl7.org/fhir/us/qicore/StructureDefinition/qicore-recorded",
            "valueDateTime": "2013-04-05T09:35:00-04:00"
          }
        ],
        "status": "completed",
        "code": {
          "coding": [
            {
              "system": "http://snomed.info/sct",
              "code": "10745001"
            }
          ]
        },
        "subject": {
          "reference": "Patient/db719e86-c19c-4678-b7d6-e0089b495160"
        },
        "performedDateTime": "2024-02-01T08:00:00.000+00:00"
      },
      "request": {
        "method": "PUT",
        "url": "Procedure/6d11bbba-0dfb-45a4-83e5-0b8257b79e24"
      }
    },
    {
      "fullUrl": "https://madie.cms.gov/Condition/1002a1c0-b1ea-4358-bd6a-28ecf6b2a29b",
      "resource": {
        "resourceType": "Condition",
        "id": "1002a1c0-b1ea-4358-bd6a-28ecf6b2a29b",
        "meta": {
          "profile": [
            "http://hl7.org/fhir/us/qicore/StructureDefinition/qicore-condition"
          ]
        },
        "category": [
          {
            "coding": [
              {
                "system": "http://terminology.hl7.org/CodeSystem/condition-category",
                "code": "encounter-diagnosis",
                "display": "Encounter Diagnosis"
              }
            ]
          }
        ],
        "code": {
          "coding": [
            {
              "system": "http://hl7.org/fhir/sid/icd-10-cm",
              "version": "2023",
              "code": "A32.7",
              "display": "Listerial sepsis",
              "userSelected": true
            }
          ]
        },
        "subject": {
          "reference": "Patient/db719e86-c19c-4678-b7d6-e0089b495160"
        },
        "recordedDate": "2024-10-26T08:00:00.000+00:00"
      },
      "request": {
        "method": "PUT",
        "url": "Condition/1002a1c0-b1ea-4358-bd6a-28ecf6b2a29b"
      }
    },
    {
      "fullUrl": "https://madie.cms.gov/Condition/bf1ecdb9-7800-4ed7-bc31-6b95fbc02736",
      "resource": {
        "resourceType": "Condition",
        "id": "bf1ecdb9-7800-4ed7-bc31-6b95fbc02736",
        "meta": {
          "profile": [
            "http://hl7.org/fhir/us/qicore/StructureDefinition/qicore-condition"
          ]
        },
        "category": [
          {
            "coding": [
              {
                "system": "http://terminology.hl7.org/CodeSystem/condition-category",
                "code": "encounter-diagnosis",
                "display": "Encounter Diagnosis"
              }
            ]
          }
        ],
        "code": {
          "coding": [
            {
              "system": "http://hl7.org/fhir/sid/icd-10-cm",
              "version": "2023",
              "code": "O34.211",
              "display": "Previous PreviousCesarean",
              "userSelected": true
            }
          ]
        },
        "subject": {
          "reference": "Patient/db719e86-c19c-4678-b7d6-e0089b495160"
        },
        "recordedDate": "2024-10-26T08:00:00.000+00:00"
      },
      "request": {
        "method": "PUT",
        "url": "Condition/bf1ecdb9-7800-4ed7-bc31-6b95fbc02736"
      }
    },
    {
      "fullUrl": "https://madie.cms.gov/MeasureReport/eb839b0f-b32f-41f9-8353-bb555ad027ae",
      "resource": {
        "resourceType": "MeasureReport",
        "id": "eb839b0f-b32f-41f9-8353-bb555ad027ae",
        "meta": {
          "profile": [
            "http://hl7.org/fhir/us/cqfmeasures/StructureDefinition/test-case-cqfm"
          ]
        },
        "contained": [
          {
            "resourceType": "Parameters",
            "id": "e33d2d41-1f21-459e-b403-61e3648294ca-parameters",
            "parameter": [
              {
                "name": "subject",
                "valueString": "db719e86-c19c-4678-b7d6-e0089b495160"
              }
            ]
          }
        ],
        "extension": [
          {
            "url": "http://hl7.org/fhir/us/cqfmeasures/StructureDefinition/cqfm-inputParameters",
            "valueReference": {
              "reference": "#e33d2d41-1f21-459e-b403-61e3648294ca-parameters"
            }
          },
          {
            "url": "http://hl7.org/fhir/us/cqfmeasures/StructureDefinition/cqfm-testCaseDescription",
            "valueMarkdown": "Risk variable of previous Cesarean.\n\n"
          }
        ],
        "modifierExtension": [
          {
            "url": "http://hl7.org/fhir/us/cqfmeasures/StructureDefinition/cqfm-isTestCase",
            "valueBoolean": true
          }
        ],
        "status": "complete",
        "type": "individual",
        "measure": "https://madie.cms.gov/Measure/SevereObstetricComplicationsFHIR",
        "period": {
          "start": "2024-01-01",
          "end": "2024-12-31"
        },
        "group": [
          {
            "population": [
              {
                "code": {
                  "coding": [
                    {
                      "system": "http://terminology.hl7.org/CodeSystem/measure-population",
                      "code": "initial-population",
                      "display": "Initial Population"
                    }
                  ]
                },
                "count": 1
              },
              {
                "code": {
                  "coding": [
                    {
                      "system": "http://terminology.hl7.org/CodeSystem/measure-population",
                      "code": "denominator",
                      "display": "Denominator"
                    }
                  ]
                },
                "count": 1
              },
              {
                "code": {
                  "coding": [
                    {
                      "system": "http://terminology.hl7.org/CodeSystem/measure-population",
                      "code": "denominator-exclusion",
                      "display": "Denominator Exclusion"
                    }
                  ]
                },
                "count": 0
              },
              {
                "code": {
                  "coding": [
                    {
                      "system": "http://terminology.hl7.org/CodeSystem/measure-population",
                      "code": "numerator",
                      "display": "Numerator"
                    }
                  ]
                },
                "count": 1
              }
            ]
          }
        ],
        "evaluatedResource": [
          {
            "reference": "Patient/db719e86-c19c-4678-b7d6-e0089b495160"
          },
          {
            "reference": "Observation/144172c4-9db5-41c4-8bb7-09b54aefd8c1"
          },
          {
            "reference": "Observation/28ee4feb-3aae-499d-86d8-8804ad105cf1"
          },
          {
            "reference": "Encounter/54972c1c-a585-4796-b395-acc0e5feec8b"
          },
          {
            "reference": "Procedure/6d11bbba-0dfb-45a4-83e5-0b8257b79e24"
          },
          {
            "reference": "Condition/1002a1c0-b1ea-4358-bd6a-28ecf6b2a29b"
          },
          {
            "reference": "Condition/bf1ecdb9-7800-4ed7-bc31-6b95fbc02736"
          }
        ]
      },
      "request": {
        "method": "PUT",
        "url": "MeasureReport/eb839b0f-b32f-41f9-8353-bb555ad027ae"
      }
    }
  ]
}