{
  "resourceType": "Bundle",
  "id": "6356dca654e383debade75aa",
  "type": "transaction",
  "entry": [
    {
      "fullUrl": "https://madie.cms.gov/Patient/6854fe23-9f22-4b1b-ade8-30cad70721d3",
      "resource": {
        "resourceType": "Patient",
        "id": "6854fe23-9f22-4b1b-ade8-30cad70721d3",
        "meta": {
          "profile": [
            "http://hl7.org/fhir/us/qicore/StructureDefinition/qicore-patient"
          ]
        },
        "text": {
          "status": "generated",
          "div": "<div xmlns=\"http://www.w3.org/1999/xhtml\"><div class=\"hapiHeaderText\">RISKCalcGestAgeEQ22Wks <b>RISKPass </b></div><table class=\"hapiPropertyTable\"><tbody><tr><td>Date of birth</td><td><span>01 February 2004</span></td></tr></tbody></table></div>"
        },
        "extension": [
          {
            "url": "http://hl7.org/fhir/us/core/StructureDefinition/us-core-race",
            "extension": [
              {
                "url": "ombCategory",
                "valueCoding": {
                  "system": "urn:oid:2.16.840.1.113883.6.238",
                  "code": "1002-5",
                  "display": "American Indian or Alaska Native",
                  "userSelected": true
                }
              },
              {
                "url": "text",
                "valueString": "American Indian or Alaska Native"
              }
            ]
          },
          {
            "url": "http://hl7.org/fhir/us/core/StructureDefinition/us-core-ethnicity",
            "extension": [
              {
                "url": "ombCategory",
                "valueCoding": {
                  "system": "urn:oid:2.16.840.1.113883.6.238",
                  "code": "2135-2",
                  "display": "Hispanic or Latino",
                  "userSelected": true
                }
              },
              {
                "url": "text",
                "valueString": "Hispanic or Latino"
              }
            ]
          }
        ],
        "identifier": [
          {
            "type": {
              "coding": [
                {
                  "system": "http://terminology.hl7.org/CodeSystem/v2-0203",
                  "code": "MR"
                }
              ]
            },
            "system": "https://bonnie-fhir.healthit.gov/",
            "value": "6356dca654e383debade75aa"
          }
        ],
        "active": true,
        "name": [
          {
            "use": "usual",
            "family": "RISKPass",
            "given": [
              "RISKCalcGestAgeEQ22Wks"
            ]
          }
        ],
        "gender": "female",
        "birthDate": "2004-02-01"
      },
      "request": {
        "method": "PUT",
        "url": "Patient/6854fe23-9f22-4b1b-ade8-30cad70721d3"
      }
    },
    {
      "fullUrl": "https://madie.cms.gov/Observation/9569fe75-4ea2-4c74-aee8-b6f9b5f50601",
      "resource": {
        "resourceType": "Observation",
        "id": "9569fe75-4ea2-4c74-aee8-b6f9b5f50601",
        "meta": {
          "profile": [
            "http://hl7.org/fhir/us/qicore/StructureDefinition/qicore-observation"
          ]
        },
        "status": "final",
        "category": [
          {
            "coding": [
              {
                "system": "http://terminology.hl7.org/CodeSystem/observation-category",
                "code": "exam",
                "display": "exam",
                "userSelected": true
              }
            ]
          }
        ],
        "code": {
          "coding": [
            {
              "system": "http://loinc.org",
              "code": "93857-1"
            }
          ]
        },
        "subject": {
          "reference": "Patient/6854fe23-9f22-4b1b-ade8-30cad70721d3"
        },
        "effectiveDateTime": "2024-02-01T08:00:00.000+00:00",
        "valueDateTime": "2024-02-01T08:00:00+00:00"
      },
      "request": {
        "method": "PUT",
        "url": "Observation/9569fe75-4ea2-4c74-aee8-b6f9b5f50601"
      }
    },
    {
      "fullUrl": "https://madie.cms.gov/Observation/4c0963f6-26b3-4be3-9049-48745a98807b",
      "resource": {
        "resourceType": "Observation",
        "id": "4c0963f6-26b3-4be3-9049-48745a98807b",
        "meta": {
          "profile": [
            "http://hl7.org/fhir/us/qicore/StructureDefinition/qicore-observation"
          ]
        },
        "status": "final",
        "category": [
          {
            "coding": [
              {
                "system": "http://terminology.hl7.org/CodeSystem/observation-category",
                "code": "exam",
                "display": "exam",
                "userSelected": true
              }
            ]
          }
        ],
        "code": {
          "coding": [
            {
              "system": "http://loinc.org",
              "code": "11778-8"
            }
          ]
        },
        "subject": {
          "reference": "Patient/6854fe23-9f22-4b1b-ade8-30cad70721d3"
        },
        "effectiveDateTime": "2024-02-01T08:00:00.000+00:00",
        "valueDateTime": "2024-06-01T08:00:00.000+00:00"
      },
      "request": {
        "method": "PUT",
        "url": "Observation/4c0963f6-26b3-4be3-9049-48745a98807b"
      }
    },
    {
      "fullUrl": "https://madie.cms.gov/Encounter/04e6ceea-ad71-4922-92a3-f8833653e5d7",
      "resource": {
        "resourceType": "Encounter",
        "id": "04e6ceea-ad71-4922-92a3-f8833653e5d7",
        "meta": {
          "profile": [
            "http://hl7.org/fhir/us/qicore/StructureDefinition/qicore-encounter"
          ]
        },
        "status": "finished",
        "class": {
          "system": "http://terminology.hl7.org/CodeSystem/v3-ActCode",
          "code": "IMP",
          "display": "inpatient encounter"
        },
        "type": [
          {
            "coding": [
              {
                "system": "http://snomed.info/sct",
                "code": "183452005"
              }
            ]
          }
        ],
        "subject": {
          "reference": "Patient/6854fe23-9f22-4b1b-ade8-30cad70721d3"
        },
        "period": {
          "start": "2024-02-01T08:00:00.000Z",
          "end": "2024-02-05T08:15:00.000Z"
        },
        "diagnosis": [
          {
            "extension": [
              {
                "url": "http://hl7.org/fhir/us/qicore/StructureDefinition/qicore-encounter-diagnosisPresentOnAdmission",
                "valueCodeableConcept": {
                  "coding": [
                    {
                      "system": "https://www.cms.gov/Medicare/Medicare-Fee-for-Service-Payment/HospitalAcqCond/Coding",
                      "code": "Y"
                    }
                  ]
                }
              }
            ],
            "condition": {
              "reference": "Condition/eedcd5db-83c2-421f-8706-2ca7228a3866"
            }
          }
        ]
      },
      "request": {
        "method": "PUT",
        "url": "Encounter/04e6ceea-ad71-4922-92a3-f8833653e5d7"
      }
    },
    {
      "fullUrl": "https://madie.cms.gov/Procedure/2633b228-0704-4187-b532-5f308a48a095",
      "resource": {
        "resourceType": "Procedure",
        "id": "2633b228-0704-4187-b532-5f308a48a095",
        "meta": {
          "profile": [
            "http://hl7.org/fhir/us/qicore/StructureDefinition/qicore-procedure"
          ]
        },
        "extension": [
          {
            "url": "http://hl7.org/fhir/us/qicore/StructureDefinition/qicore-recorded",
            "valueDateTime": "2013-04-05T09:35:00-04:00"
          }
        ],
        "status": "completed",
        "code": {
          "coding": [
            {
              "system": "http://snomed.info/sct",
              "code": "10745001"
            }
          ]
        },
        "subject": {
          "reference": "Patient/6854fe23-9f22-4b1b-ade8-30cad70721d3"
        },
        "performedPeriod": {
          "start": "2024-02-01T08:00:00.000Z",
          "end": "2024-02-05T08:15:00.000Z"
        }
      },
      "request": {
        "method": "PUT",
        "url": "Procedure/2633b228-0704-4187-b532-5f308a48a095"
      }
    },
    {
      "fullUrl": "https://madie.cms.gov/Condition/eedcd5db-83c2-421f-8706-2ca7228a3866",
      "resource": {
        "resourceType": "Condition",
        "id": "eedcd5db-83c2-421f-8706-2ca7228a3866",
        "meta": {
          "profile": [
            "http://hl7.org/fhir/us/qicore/StructureDefinition/qicore-condition"
          ]
        },
        "category": [
          {
            "coding": [
              {
                "system": "http://terminology.hl7.org/CodeSystem/condition-category",
                "code": "encounter-diagnosis",
                "display": "Encounter Diagnosis"
              }
            ]
          }
        ],
        "code": {
          "coding": [
            {
              "system": "http://hl7.org/fhir/sid/icd-10-cm",
              "version": "2023",
              "code": "Z3A.20",
              "display": "20 weeks gestation",
              "userSelected": true
            }
          ]
        },
        "subject": {
          "reference": "Patient/6854fe23-9f22-4b1b-ade8-30cad70721d3"
        },
        "recordedDate": "2024-10-26T08:00:00.000+00:00"
      },
      "request": {
        "method": "PUT",
        "url": "Condition/eedcd5db-83c2-421f-8706-2ca7228a3866"
      }
    },
    {
      "fullUrl": "https://madie.cms.gov/Coverage/5414f53f-029e-4a82-8b5a-828c325decab",
      "resource": {
        "resourceType": "Coverage",
        "id": "5414f53f-029e-4a82-8b5a-828c325decab",
        "meta": {
          "profile": [
            "http://hl7.org/fhir/us/qicore/StructureDefinition/qicore-coverage"
          ]
        },
        "status": "active",
        "beneficiary": {
          "reference": "Patient/6854fe23-9f22-4b1b-ade8-30cad70721d3"
        },
        "payor": [
          {
            "reference": "Organization/1af03b14-04ba-4db1-9fe9-25798667de6a"
          }
        ]
      },
      "request": {
        "method": "PUT",
        "url": "Coverage/5414f53f-029e-4a82-8b5a-828c325decab"
      }
    },
    {
      "fullUrl": "https://madie.cms.gov/Organization/1af03b14-04ba-4db1-9fe9-25798667de6a",
      "resource": {
        "resourceType": "Organization",
        "id": "1af03b14-04ba-4db1-9fe9-25798667de6a",
        "meta": {
          "profile": [
            "http://hl7.org/fhir/us/qicore/StructureDefinition/qicore-organization"
          ]
        },
        "identifier": [
          {
            "use": "temp",
            "system": "urn:oid:2.16.840.1.113883.4.4",
            "value": "21-3259825"
          }
        ],
        "active": true,
        "type": [
          {
            "coding": [
              {
                "system": "http://terminology.hl7.org/CodeSystem/organization-type",
                "code": "pay",
                "display": "Payer"
              }
            ]
          }
        ],
        "name": "Blue Cross Blue Shield of Texas",
        "telecom": [
          {
            "system": "phone",
            "value": "(+1) 972-766-6900"
          }
        ],
        "address": [
          {
            "use": "billing",
            "type": "postal",
            "line": [
              "P.O. Box 660044"
            ],
            "city": "Dallas",
            "state": "TX",
            "postalCode": "75266-0044",
            "country": "USA"
          }
        ]
      },
      "request": {
        "method": "PUT",
        "url": "Organization/1af03b14-04ba-4db1-9fe9-25798667de6a"
      }
    },
    {
      "fullUrl": "https://madie.cms.gov/Practitioner/c3755922-6ca4-468f-a577-ccd975be3803",
      "resource": {
        "resourceType": "Practitioner",
        "id": "c3755922-6ca4-468f-a577-ccd975be3803",
        "identifier": [
          {
            "system": "http://hl7.org/fhir/sid/us-npi",
            "value": "123456"
          }
        ],
        "name": [
          {
            "family": "Evil",
            "prefix": [
              "Dr"
            ]
          }
        ]
      },
      "request": {
        "method": "PUT",
        "url": "Practitioner/c3755922-6ca4-468f-a577-ccd975be3803"
      }
    },
    {
      "fullUrl": "https://madie.cms.gov/MeasureReport/9a7de4c0-eecc-4c9a-8860-c39003f32ed6",
      "resource": {
        "resourceType": "MeasureReport",
        "id": "9a7de4c0-eecc-4c9a-8860-c39003f32ed6",
        "meta": {
          "profile": [
            "http://hl7.org/fhir/us/cqfmeasures/StructureDefinition/test-case-cqfm"
          ]
        },
        "contained": [
          {
            "resourceType": "Parameters",
            "id": "e0866e6e-3616-4187-9913-d1a3a65e9f23-parameters",
            "parameter": [
              {
                "name": "subject",
                "valueString": "6854fe23-9f22-4b1b-ade8-30cad70721d3"
              }
            ]
          }
        ],
        "extension": [
          {
            "url": "http://hl7.org/fhir/us/cqfmeasures/StructureDefinition/cqfm-inputParameters",
            "valueReference": {
              "reference": "#e0866e6e-3616-4187-9913-d1a3a65e9f23-parameters"
            }
          },
          {
            "url": "http://hl7.org/fhir/us/cqfmeasures/StructureDefinition/cqfm-testCaseDescription",
            "valueMarkdown": "\"Risk variable of preterm birth. CGA is 22 weeks.\n.\"\n"
          }
        ],
        "modifierExtension": [
          {
            "url": "http://hl7.org/fhir/us/cqfmeasures/StructureDefinition/cqfm-isTestCase",
            "valueBoolean": true
          }
        ],
        "status": "complete",
        "type": "individual",
        "measure": "https://madie.cms.gov/Measure/SevereObstetricComplicationsFHIR",
        "period": {
          "start": "2024-01-01",
          "end": "2024-12-31"
        },
        "group": [
          {
            "population": [
              {
                "code": {
                  "coding": [
                    {
                      "system": "http://terminology.hl7.org/CodeSystem/measure-population",
                      "code": "initial-population",
                      "display": "Initial Population"
                    }
                  ]
                },
                "count": 1
              },
              {
                "code": {
                  "coding": [
                    {
                      "system": "http://terminology.hl7.org/CodeSystem/measure-population",
                      "code": "denominator",
                      "display": "Denominator"
                    }
                  ]
                },
                "count": 1
              },
              {
                "code": {
                  "coding": [
                    {
                      "system": "http://terminology.hl7.org/CodeSystem/measure-population",
                      "code": "denominator-exclusion",
                      "display": "Denominator Exclusion"
                    }
                  ]
                },
                "count": 0
              },
              {
                "code": {
                  "coding": [
                    {
                      "system": "http://terminology.hl7.org/CodeSystem/measure-population",
                      "code": "numerator",
                      "display": "Numerator"
                    }
                  ]
                },
                "count": 0
              }
            ]
          }
        ],
        "evaluatedResource": [
          {
            "reference": "Patient/6854fe23-9f22-4b1b-ade8-30cad70721d3"
          },
          {
            "reference": "Observation/9569fe75-4ea2-4c74-aee8-b6f9b5f50601"
          },
          {
            "reference": "Observation/4c0963f6-26b3-4be3-9049-48745a98807b"
          },
          {
            "reference": "Encounter/04e6ceea-ad71-4922-92a3-f8833653e5d7"
          },
          {
            "reference": "Procedure/2633b228-0704-4187-b532-5f308a48a095"
          },
          {
            "reference": "Condition/eedcd5db-83c2-421f-8706-2ca7228a3866"
          },
          {
            "reference": "Coverage/5414f53f-029e-4a82-8b5a-828c325decab"
          },
          {
            "reference": "Organization/1af03b14-04ba-4db1-9fe9-25798667de6a"
          },
          {
            "reference": "Practitioner/c3755922-6ca4-468f-a577-ccd975be3803"
          }
        ]
      },
      "request": {
        "method": "PUT",
        "url": "MeasureReport/9a7de4c0-eecc-4c9a-8860-c39003f32ed6"
      }
    }
  ]
}