{
  "resourceType": "Bundle",
  "id": "ScreNotatriNorefAsseModNodxCp4",
  "type": "transaction",
  "entry": [
    {
      "fullUrl": "https://madie.cms.gov/Patient/0d34fc5f-6432-406c-a4c0-be83afc52478",
      "resource": {
        "resourceType": "Patient",
        "id": "0d34fc5f-6432-406c-a4c0-be83afc52478",
        "meta": {
          "profile": [
            "http://hl7.org/fhir/us/qicore/StructureDefinition/qicore-patient"
          ]
        },
        "text": {
          "status": "generated",
          "div": "<div xmlns=\"http://www.w3.org/1999/xhtml\"><div class=\"hapiHeaderText\">ScreNotatriNorefAsseModNodxCp4, , <b> </b></div><table class=\"hapiPropertyTable\"><tbody><tr><td>Identifier</td><td>ScreNotatriNorefAsseModNodxCp4</td></tr><tr><td>Date of birth</td><td><span>14 May 1950</span></td></tr></tbody></table></div>"
        },
        "extension": [
          {
            "url": "http://hl7.org/fhir/us/core/StructureDefinition/us-core-race",
            "extension": [
              {
                "url": "ombCategory",
                "valueCoding": {
                  "system": "urn:oid:2.16.840.1.113883.6.238",
                  "code": "2028-9",
                  "display": "Asian",
                  "userSelected": true
                }
              },
              {
                "url": "text",
                "valueString": "Asian"
              }
            ]
          },
          {
            "url": "http://hl7.org/fhir/us/core/StructureDefinition/us-core-ethnicity",
            "extension": [
              {
                "url": "ombCategory",
                "valueCoding": {
                  "system": "urn:oid:2.16.840.1.113883.6.238",
                  "code": "2135-2",
                  "display": "Hispanic or Latino",
                  "userSelected": true
                }
              },
              {
                "url": "text",
                "valueString": "Hispanic or Latino"
              }
            ]
          }
        ],
        "identifier": [
          {
            "type": {
              "coding": [
                {
                  "system": "http://terminology.hl7.org/CodeSystem/v2-0203",
                  "code": "MR"
                }
              ]
            },
            "system": "https://madie.cms.gov/",
            "value": "ScreNotatriNorefAsseModNodxCp4"
          }
        ],
        "active": true,
        "name": [
          {
            "use": "usual",
            "text": "ScreNotatriNorefAsseModNodxCp4",
            "family": "DENOMPass1",
            "given": [
              "ScreNotatriNorefAsseModNodxCp4DENOMPass1"
            ]
          }
        ],
        "gender": "male",
        "birthDate": "1955-12-31",
        "address": [
          {
            "text": "ScreNotatriNorefAsseModNodxCp4, Screened Not at risk Assessed Severely Malnourished Diagnosed Care Plan, ID=ScreNotatriNorefAsseModNodxCp4, DOB: 14 May 1950"
          }
        ]
      },
      "request": {
        "method": "PUT",
        "url": "Patient/0d34fc5f-6432-406c-a4c0-be83afc52478"
      }
    },
    {
      "fullUrl": "https://madie.cms.gov/Encounter/b853cd44-dea4-4663-a623-17af6346b5ac",
      "resource": {
        "resourceType": "Encounter",
        "id": "b853cd44-dea4-4663-a623-17af6346b5ac",
        "meta": {
          "profile": [
            "http://hl7.org/fhir/us/qicore/StructureDefinition/qicore-encounter"
          ]
        },
        "status": "finished",
        "class": {
          "system": "http://terminology.hl7.org/CodeSystem/v3-ActCode",
          "code": "IMP",
          "display": "inpatient encounter"
        },
        "type": [
          {
            "coding": [
              {
                "system": "http://snomed.info/sct",
                "code": "183452005"
              }
            ]
          }
        ],
        "subject": {
          "reference": "Patient/0d34fc5f-6432-406c-a4c0-be83afc52478"
        },
        "period": {
          "start": "2026-02-01T08:00:00.000Z",
          "end": "2026-02-07T08:15:00.000Z"
        }
      },
      "request": {
        "method": "PUT",
        "url": "Encounter/b853cd44-dea4-4663-a623-17af6346b5ac"
      }
    },
    {
      "fullUrl": "https://madie.cms.gov/Observation/dbfcafcb-8409-47fe-afc4-f452294239ec",
      "resource": {
        "resourceType": "Observation",
        "id": "dbfcafcb-8409-47fe-afc4-f452294239ec",
        "meta": {
          "profile": [
            "http://hl7.org/fhir/us/qicore/StructureDefinition/qicore-observation"
          ]
        },
        "status": "final",
        "category": [
          {
            "coding": [
              {
                "system": "http://terminology.hl7.org/CodeSystem/observation-category",
                "code": "survey",
                "display": "Survey"
              }
            ]
          }
        ],
        "code": {
          "coding": [
            {
              "system": "http://loinc.org",
              "code": "98967-3",
              "display": "Nutritional Risk Screening 2002 panel",
              "userSelected": true
            }
          ]
        },
        "subject": {
          "reference": "Patient/0d34fc5f-6432-406c-a4c0-be83afc52478"
        },
        "effectiveDateTime": "2026-02-01T09:00:00.000+00:00",
        "valueCodeableConcept": {
          "coding": [
            {
              "system": "http://loinc.org",
              "code": "LA33699-2",
              "display": "Not at risk for malnutrition",
              "userSelected": true
            }
          ]
        }
      },
      "request": {
        "method": "PUT",
        "url": "Observation/dbfcafcb-8409-47fe-afc4-f452294239ec"
      }
    },
    {
      "fullUrl": "https://madie.cms.gov/Observation/f6a34336-f341-4b7e-9454-dc9fc2645542",
      "resource": {
        "resourceType": "Observation",
        "id": "f6a34336-f341-4b7e-9454-dc9fc2645542",
        "meta": {
          "profile": [
            "http://hl7.org/fhir/us/qicore/StructureDefinition/qicore-observation"
          ]
        },
        "status": "final",
        "category": [
          {
            "coding": [
              {
                "system": "http://terminology.hl7.org/CodeSystem/observation-category",
                "code": "survey",
                "display": "Survey"
              }
            ]
          }
        ],
        "code": {
          "coding": [
            {
              "system": "http://loinc.org",
              "code": "75303-8",
              "display": "Nutrition assessment narrative",
              "userSelected": true
            }
          ]
        },
        "subject": {
          "reference": "Patient/0d34fc5f-6432-406c-a4c0-be83afc52478"
        },
        "effectiveDateTime": "2026-02-01T10:00:00.000+00:00",
        "valueCodeableConcept": {
          "coding": [
            {
              "system": "http://snomed.info/sct",
              "code": "441951000124102",
              "display": "Starvation-related malnutrition (disorder)",
              "userSelected": true
            }
          ]
        }
      },
      "request": {
        "method": "PUT",
        "url": "Observation/f6a34336-f341-4b7e-9454-dc9fc2645542"
      }
    },
    {
      "fullUrl": "https://madie.cms.gov/Procedure/076332ef-5682-4a62-b4ca-75539a852978",
      "resource": {
        "resourceType": "Procedure",
        "id": "076332ef-5682-4a62-b4ca-75539a852978",
        "meta": {
          "profile": [
            "http://hl7.org/fhir/us/qicore/StructureDefinition/qicore-procedure"
          ]
        },
        "extension": [
          {
            "url": "http://hl7.org/fhir/us/qicore/StructureDefinition/qicore-recorded",
            "valueDateTime": "2025-02-02T11:30:00.000Z"
          }
        ],
        "status": "completed",
        "code": {
          "coding": [
            {
              "system": "http://snomed.info/sct",
              "code": "1279742004",
              "display": "Development of nutritionc care plan (procedure)"
            }
          ],
          "text": "Development of nutrition care plan (procedure)"
        },
        "subject": {
          "reference": "Patient/0d34fc5f-6432-406c-a4c0-be83afc52478"
        },
        "encounter": {
          "reference": "Encounter/ScreNotatriNorefAsseModNodxCp4DENOMPass1"
        },
        "performedPeriod": {
          "start": "2026-02-01T11:30:00.000Z",
          "end": "2026-02-07T08:15:00.000Z"
        }
      },
      "request": {
        "method": "PUT",
        "url": "Procedure/076332ef-5682-4a62-b4ca-75539a852978"
      }
    },
    {
      "fullUrl": "https://madie.cms.gov/Coverage/eb02e1dc-8f86-4ce4-9a1f-56f175b8bb76",
      "resource": {
        "resourceType": "Coverage",
        "id": "eb02e1dc-8f86-4ce4-9a1f-56f175b8bb76",
        "meta": {
          "profile": [
            "http://hl7.org/fhir/us/qicore/StructureDefinition/qicore-coverage"
          ]
        },
        "status": "active",
        "type": {
          "coding": [
            {
              "system": "https://nahdo.org/sopt",
              "version": "9.2",
              "code": "11",
              "display": "Medicare Managed Care (Includes Medicare Advantage Plans)"
            }
          ]
        },
        "beneficiary": {
          "reference": "Patient/0d34fc5f-6432-406c-a4c0-be83afc52478"
        },
        "period": {
          "start": "2024-10-01T00:00:00+00:00"
        },
        "payor": [
          {
            "reference": "Organization/8f6c7d54-da42-4032-ac8d-083d2b275151"
          }
        ]
      },
      "request": {
        "method": "PUT",
        "url": "Coverage/eb02e1dc-8f86-4ce4-9a1f-56f175b8bb76"
      }
    },
    {
      "fullUrl": "https://madie.cms.gov/Organization/8f6c7d54-da42-4032-ac8d-083d2b275151",
      "resource": {
        "resourceType": "Organization",
        "id": "8f6c7d54-da42-4032-ac8d-083d2b275151",
        "meta": {
          "profile": [
            "http://hl7.org/fhir/us/qicore/StructureDefinition/qicore-organization"
          ]
        },
        "identifier": [
          {
            "use": "temp",
            "system": "urn:oid:2.16.840.1.113883.4.4",
            "value": "21-3259825"
          }
        ],
        "active": true,
        "type": [
          {
            "coding": [
              {
                "system": "http://terminology.hl7.org/CodeSystem/organization-type",
                "code": "pay",
                "display": "Payer"
              }
            ]
          }
        ],
        "name": "Blue Cross Blue Shield of Texas",
        "telecom": [
          {
            "system": "phone",
            "value": "(+1) 972-766-6900"
          }
        ],
        "address": [
          {
            "use": "billing",
            "type": "postal",
            "line": [
              "P.O. Box 660044"
            ],
            "city": "Dallas",
            "state": "TX",
            "postalCode": "75266-0044",
            "country": "USA"
          }
        ]
      },
      "request": {
        "method": "PUT",
        "url": "Organization/8f6c7d54-da42-4032-ac8d-083d2b275151"
      }
    },
    {
      "fullUrl": "https://madie.cms.gov/MeasureReport/9d6bea30-4eb0-435c-9a2d-a726d0aeefc1",
      "resource": {
        "resourceType": "MeasureReport",
        "id": "9d6bea30-4eb0-435c-9a2d-a726d0aeefc1",
        "meta": {
          "profile": [
            "http://hl7.org/fhir/us/cqfmeasures/StructureDefinition/test-case-cqfm"
          ]
        },
        "contained": [
          {
            "resourceType": "Parameters",
            "id": "3c9d67df-e1d8-41ca-b24d-5a06bae7eb87-parameters",
            "parameter": [
              {
                "name": "subject",
                "valueString": "0d34fc5f-6432-406c-a4c0-be83afc52478"
              }
            ]
          }
        ],
        "extension": [
          {
            "url": "http://hl7.org/fhir/us/cqfmeasures/StructureDefinition/cqfm-inputParameters",
            "valueReference": {
              "reference": "#3c9d67df-e1d8-41ca-b24d-5a06bae7eb87-parameters"
            }
          },
          {
            "url": "http://hl7.org/fhir/us/cqfmeasures/StructureDefinition/cqfm-testCaseDescription",
            "valueMarkdown": "Screened, Not at Risk, No Referral, Assessed, Moderate Malnutrition, No Diagnosis, Nutrition Care Plan"
          }
        ],
        "modifierExtension": [
          {
            "url": "http://hl7.org/fhir/us/cqfmeasures/StructureDefinition/cqfm-isTestCase",
            "valueBoolean": true
          }
        ],
        "status": "complete",
        "type": "individual",
        "measure": "https://madie.cms.gov/Measure/GlobalMalnutritionCompositeFHIR",
        "period": {
          "start": "2026-01-01",
          "end": "2026-12-31"
        },
        "group": [
          {
            "population": [
              {
                "code": {
                  "coding": [
                    {
                      "system": "http://terminology.hl7.org/CodeSystem/measure-population",
                      "code": "initial-population",
                      "display": "Initial Population"
                    }
                  ]
                },
                "count": 1
              },
              {
                "code": {
                  "coding": [
                    {
                      "system": "http://terminology.hl7.org/CodeSystem/measure-population",
                      "code": "measure-population",
                      "display": "Measure Population"
                    }
                  ]
                },
                "count": 1
              },
              {
                "code": {
                  "coding": [
                    {
                      "system": "http://terminology.hl7.org/CodeSystem/measure-population",
                      "code": "measure-population-observation",
                      "display": "Measure Population Observation"
                    }
                  ]
                },
                "count": 1
              }
            ]
          },
          {
            "population": [
              {
                "code": {
                  "coding": [
                    {
                      "system": "http://terminology.hl7.org/CodeSystem/measure-population",
                      "code": "initial-population",
                      "display": "Initial Population"
                    }
                  ]
                },
                "count": 1
              },
              {
                "code": {
                  "coding": [
                    {
                      "system": "http://terminology.hl7.org/CodeSystem/measure-population",
                      "code": "measure-population",
                      "display": "Measure Population"
                    }
                  ]
                },
                "count": 1
              },
              {
                "code": {
                  "coding": [
                    {
                      "system": "http://terminology.hl7.org/CodeSystem/measure-population",
                      "code": "measure-population-observation",
                      "display": "Measure Population Observation"
                    }
                  ]
                },
                "count": 0
              }
            ]
          },
          {
            "population": [
              {
                "code": {
                  "coding": [
                    {
                      "system": "http://terminology.hl7.org/CodeSystem/measure-population",
                      "code": "initial-population",
                      "display": "Initial Population"
                    }
                  ]
                },
                "count": 1
              },
              {
                "code": {
                  "coding": [
                    {
                      "system": "http://terminology.hl7.org/CodeSystem/measure-population",
                      "code": "measure-population",
                      "display": "Measure Population"
                    }
                  ]
                },
                "count": 1
              },
              {
                "code": {
                  "coding": [
                    {
                      "system": "http://terminology.hl7.org/CodeSystem/measure-population",
                      "code": "measure-population-observation",
                      "display": "Measure Population Observation"
                    }
                  ]
                },
                "count": 0
              }
            ]
          },
          {
            "population": [
              {
                "code": {
                  "coding": [
                    {
                      "system": "http://terminology.hl7.org/CodeSystem/measure-population",
                      "code": "initial-population",
                      "display": "Initial Population"
                    }
                  ]
                },
                "count": 1
              },
              {
                "code": {
                  "coding": [
                    {
                      "system": "http://terminology.hl7.org/CodeSystem/measure-population",
                      "code": "measure-population",
                      "display": "Measure Population"
                    }
                  ]
                },
                "count": 1
              },
              {
                "code": {
                  "coding": [
                    {
                      "system": "http://terminology.hl7.org/CodeSystem/measure-population",
                      "code": "measure-population-observation",
                      "display": "Measure Population Observation"
                    }
                  ]
                },
                "count": 0
              }
            ]
          },
          {
            "population": [
              {
                "code": {
                  "coding": [
                    {
                      "system": "http://terminology.hl7.org/CodeSystem/measure-population",
                      "code": "initial-population",
                      "display": "Initial Population"
                    }
                  ]
                },
                "count": 1
              },
              {
                "code": {
                  "coding": [
                    {
                      "system": "http://terminology.hl7.org/CodeSystem/measure-population",
                      "code": "measure-population",
                      "display": "Measure Population"
                    }
                  ]
                },
                "count": 1
              },
              {
                "code": {
                  "coding": [
                    {
                      "system": "http://terminology.hl7.org/CodeSystem/measure-population",
                      "code": "measure-population-observation",
                      "display": "Measure Population Observation"
                    }
                  ]
                },
                "count": 1
              }
            ]
          },
          {
            "population": [
              {
                "code": {
                  "coding": [
                    {
                      "system": "http://terminology.hl7.org/CodeSystem/measure-population",
                      "code": "initial-population",
                      "display": "Initial Population"
                    }
                  ]
                },
                "count": 1
              },
              {
                "code": {
                  "coding": [
                    {
                      "system": "http://terminology.hl7.org/CodeSystem/measure-population",
                      "code": "measure-population",
                      "display": "Measure Population"
                    }
                  ]
                },
                "count": 1
              },
              {
                "code": {
                  "coding": [
                    {
                      "system": "http://terminology.hl7.org/CodeSystem/measure-population",
                      "code": "measure-population-observation",
                      "display": "Measure Population Observation"
                    }
                  ]
                },
                "count": 100
              }
            ]
          }
        ],
        "evaluatedResource": [
          {
            "reference": "Patient/0d34fc5f-6432-406c-a4c0-be83afc52478"
          },
          {
            "reference": "Encounter/b853cd44-dea4-4663-a623-17af6346b5ac"
          },
          {
            "reference": "Observation/dbfcafcb-8409-47fe-afc4-f452294239ec"
          },
          {
            "reference": "Observation/f6a34336-f341-4b7e-9454-dc9fc2645542"
          },
          {
            "reference": "Procedure/076332ef-5682-4a62-b4ca-75539a852978"
          },
          {
            "reference": "Coverage/eb02e1dc-8f86-4ce4-9a1f-56f175b8bb76"
          },
          {
            "reference": "Organization/8f6c7d54-da42-4032-ac8d-083d2b275151"
          }
        ]
      },
      "request": {
        "method": "PUT",
        "url": "MeasureReport/9d6bea30-4eb0-435c-9a2d-a726d0aeefc1"
      }
    }
  ]
}