{
  "resourceType": "Bundle",
  "id": "6129132802c62a011f2e60af",
  "type": "transaction",
  "entry": [
    {
      "fullUrl": "https://madie.cms.gov/Patient/adc9cad7-519f-483e-9025-fdc6611cb158",
      "resource": {
        "resourceType": "Patient",
        "id": "adc9cad7-519f-483e-9025-fdc6611cb158",
        "meta": {
          "profile": [
            "http://hl7.org/fhir/us/qicore/StructureDefinition/qicore-patient"
          ]
        },
        "text": {
          "status": "generated",
          "div": "<div xmlns=\"http://www.w3.org/1999/xhtml\"><div class=\"hapiHeaderText\">AntithromboticAfterEncIP <b>NUMERFAIL </b></div><table class=\"hapiPropertyTable\"><tbody><tr><td>Identifier</td><td>a66bbe60a93110b35e0f0654679e827a</td></tr><tr><td>Date of birth</td><td><span>26 August 1990</span></td></tr></tbody></table></div>"
        },
        "extension": [
          {
            "url": "http://hl7.org/fhir/us/core/StructureDefinition/us-core-race",
            "extension": [
              {
                "url": "ombCategory",
                "valueCoding": {
                  "system": "urn:oid:2.16.840.1.113883.6.238",
                  "code": "1002-5",
                  "display": "American Indian or Alaska Native",
                  "userSelected": true
                }
              },
              {
                "url": "text",
                "valueString": "American Indian or Alaska Native"
              }
            ]
          },
          {
            "url": "http://hl7.org/fhir/us/core/StructureDefinition/us-core-ethnicity",
            "extension": [
              {
                "url": "ombCategory",
                "valueCoding": {
                  "system": "urn:oid:2.16.840.1.113883.6.238",
                  "code": "2135-2",
                  "display": "Hispanic or Latino",
                  "userSelected": true
                }
              },
              {
                "url": "text",
                "valueString": "Hispanic or Latino"
              }
            ]
          }
        ],
        "identifier": [
          {
            "type": {
              "coding": [
                {
                  "system": "http://terminology.hl7.org/CodeSystem/v2-0203",
                  "code": "MR"
                }
              ]
            },
            "system": "https://bonnie-fhir.healthit.gov/",
            "value": "6129132802c62a011f2e60af"
          }
        ],
        "active": true,
        "name": [
          {
            "use": "usual",
            "family": "NUMERFail",
            "given": [
              "AntithromboticAfterEncIP"
            ]
          }
        ],
        "gender": "male",
        "birthDate": "1999-08-26"
      },
      "request": {
        "method": "PUT",
        "url": "Patient/adc9cad7-519f-483e-9025-fdc6611cb158"
      }
    },
    {
      "fullUrl": "https://madie.cms.gov/Encounter/06c759d4-2e80-41d2-bf00-d693329417d1",
      "resource": {
        "resourceType": "Encounter",
        "id": "06c759d4-2e80-41d2-bf00-d693329417d1",
        "meta": {
          "profile": [
            "http://hl7.org/fhir/us/qicore/StructureDefinition/qicore-encounter"
          ]
        },
        "status": "finished",
        "class": {
          "system": "http://terminology.hl7.org/CodeSystem/v3-ActCode",
          "code": "IMP",
          "display": "inpatient encounter",
          "userSelected": true
        },
        "type": [
          {
            "coding": [
              {
                "system": "http://snomed.info/sct",
                "code": "32485007"
              }
            ]
          }
        ],
        "subject": {
          "reference": "Patient/adc9cad7-519f-483e-9025-fdc6611cb158"
        },
        "period": {
          "start": "2025-09-03T09:30:00.000+00:00",
          "end": "2025-12-31T10:30:00.000+00:00"
        },
        "length": {
          "value": 119,
          "unit": "days"
        },
        "diagnosis": [
          {
            "condition": {
              "reference": "Condition/6f9c3809-ea4c-4ff3-b956-0dbb41e01363"
            },
            "use": {
              "coding": [
                {
                  "system": "http://terminology.hl7.org/CodeSystem/diagnosis-role",
                  "code": "billing",
                  "display": "Billing"
                }
              ]
            },
            "rank": 1
          }
        ]
      },
      "request": {
        "method": "PUT",
        "url": "Encounter/06c759d4-2e80-41d2-bf00-d693329417d1"
      }
    },
    {
      "fullUrl": "https://madie.cms.gov/MedicationRequest/b2450d69-c10e-41ff-a588-c91563f943a5",
      "resource": {
        "resourceType": "MedicationRequest",
        "id": "b2450d69-c10e-41ff-a588-c91563f943a5",
        "meta": {
          "profile": [
            "http://hl7.org/fhir/us/qicore/StructureDefinition/qicore-medicationrequest"
          ]
        },
        "status": "active",
        "intent": "order",
        "category": [
          {
            "coding": [
              {
                "system": "http://terminology.hl7.org/CodeSystem/medicationrequest-category",
                "code": "discharge",
                "display": "Discharge",
                "userSelected": true
              }
            ]
          }
        ],
        "medicationCodeableConcept": {
          "coding": [
            {
              "system": "http://www.nlm.nih.gov/research/umls/rxnorm",
              "code": "198466"
            }
          ]
        },
        "subject": {
          "reference": "Patient/adc9cad7-519f-483e-9025-fdc6611cb158"
        },
        "authoredOn": "2025-12-31T10:31:00.000+00:00",
        "requester": {
          "reference": "Practitioner/example"
        }
      },
      "request": {
        "method": "PUT",
        "url": "MedicationRequest/b2450d69-c10e-41ff-a588-c91563f943a5"
      }
    },
    {
      "fullUrl": "https://madie.cms.gov/Condition/6f9c3809-ea4c-4ff3-b956-0dbb41e01363",
      "resource": {
        "resourceType": "Condition",
        "id": "6f9c3809-ea4c-4ff3-b956-0dbb41e01363",
        "meta": {
          "profile": [
            "http://hl7.org/fhir/us/qicore/StructureDefinition/qicore-condition"
          ]
        },
        "clinicalStatus": {
          "coding": [
            {
              "system": "http://terminology.hl7.org/CodeSystem/condition-clinical",
              "code": "active"
            }
          ]
        },
        "verificationStatus": {
          "coding": [
            {
              "system": "http://terminology.hl7.org/CodeSystem/condition-ver-status",
              "code": "confirmed"
            }
          ]
        },
        "category": [
          {
            "coding": [
              {
                "system": "http://terminology.hl7.org/CodeSystem/condition-category",
                "code": "encounter-diagnosis",
                "display": "Encounter Diagnosis"
              }
            ]
          }
        ],
        "code": {
          "coding": [
            {
              "system": "http://snomed.info/sct",
              "version": "2020-09",
              "code": "111297002",
              "display": "Nonparalytic stroke (disorder)",
              "userSelected": true
            }
          ]
        },
        "subject": {
          "reference": "Patient/adc9cad7-519f-483e-9025-fdc6611cb158"
        },
        "recordedDate": "2025-07-15T08:00:00.000+00:00"
      },
      "request": {
        "method": "PUT",
        "url": "Condition/6f9c3809-ea4c-4ff3-b956-0dbb41e01363"
      }
    },
    {
      "fullUrl": "https://madie.cms.gov/Coverage/146db886-305a-4b61-b8c7-fb34619c48f2",
      "resource": {
        "resourceType": "Coverage",
        "id": "146db886-305a-4b61-b8c7-fb34619c48f2",
        "meta": {
          "profile": [
            "http://hl7.org/fhir/us/qicore/StructureDefinition/qicore-coverage"
          ]
        },
        "status": "active",
        "beneficiary": {
          "reference": "Patient/adc9cad7-519f-483e-9025-fdc6611cb158"
        },
        "payor": [
          {
            "reference": "Organization/ddcf3381-4dca-4e97-b7f5-d783bb400865"
          }
        ]
      },
      "request": {
        "method": "PUT",
        "url": "Coverage/146db886-305a-4b61-b8c7-fb34619c48f2"
      }
    },
    {
      "fullUrl": "https://madie.cms.gov/Organization/ddcf3381-4dca-4e97-b7f5-d783bb400865",
      "resource": {
        "resourceType": "Organization",
        "id": "ddcf3381-4dca-4e97-b7f5-d783bb400865",
        "meta": {
          "profile": [
            "http://hl7.org/fhir/us/qicore/StructureDefinition/qicore-organization"
          ]
        },
        "identifier": [
          {
            "use": "temp",
            "system": "urn:oid:2.16.840.1.113883.4.4",
            "value": "21-3259825"
          }
        ],
        "active": true,
        "type": [
          {
            "coding": [
              {
                "system": "http://terminology.hl7.org/CodeSystem/organization-type",
                "code": "pay",
                "display": "Payer"
              }
            ]
          }
        ],
        "name": "Blue Cross Blue Shield of Texas",
        "telecom": [
          {
            "system": "phone",
            "value": "(+1) 972-766-6900"
          }
        ],
        "address": [
          {
            "use": "billing",
            "type": "postal",
            "line": [
              "P.O. Box 660044"
            ],
            "city": "Dallas",
            "state": "TX",
            "postalCode": "75266-0044",
            "country": "USA"
          }
        ]
      },
      "request": {
        "method": "PUT",
        "url": "Organization/ddcf3381-4dca-4e97-b7f5-d783bb400865"
      }
    },
    {
      "fullUrl": "https://madie.cms.gov/MeasureReport/6bc1fa85-5d63-4afc-a47c-d71c68fcce68",
      "resource": {
        "resourceType": "MeasureReport",
        "id": "6bc1fa85-5d63-4afc-a47c-d71c68fcce68",
        "meta": {
          "profile": [
            "http://hl7.org/fhir/us/cqfmeasures/StructureDefinition/test-case-cqfm"
          ]
        },
        "contained": [
          {
            "resourceType": "Parameters",
            "id": "16d68601-a12d-4647-90e4-9261dad1ca1b-parameters",
            "parameter": [
              {
                "name": "subject",
                "valueString": "adc9cad7-519f-483e-9025-fdc6611cb158"
              }
            ]
          }
        ],
        "extension": [
          {
            "url": "http://hl7.org/fhir/us/cqfmeasures/StructureDefinition/cqfm-inputParameters",
            "valueReference": {
              "reference": "#16d68601-a12d-4647-90e4-9261dad1ca1b-parameters"
            }
          },
          {
            "url": "http://hl7.org/fhir/us/cqfmeasures/StructureDefinition/cqfm-testCaseDescription",
            "valueMarkdown": "Patient is 18 with Non-Elective Inpatient Encounter (LOS 120 days) with principal diagnosis of ischemic stroke ends during MP received antithrombotic 1 minute after encounter\n"
          }
        ],
        "modifierExtension": [
          {
            "url": "http://hl7.org/fhir/us/cqfmeasures/StructureDefinition/cqfm-isTestCase",
            "valueBoolean": true
          }
        ],
        "status": "complete",
        "type": "individual",
        "measure": "https://madie.cms.gov/Measure/DischargedonAntithromboticTherapyFHIR",
        "period": {
          "start": "2025-01-01",
          "end": "2025-12-31"
        },
        "group": [
          {
            "population": [
              {
                "code": {
                  "coding": [
                    {
                      "system": "http://terminology.hl7.org/CodeSystem/measure-population",
                      "code": "initial-population",
                      "display": "Initial Population"
                    }
                  ]
                },
                "count": 1
              },
              {
                "code": {
                  "coding": [
                    {
                      "system": "http://terminology.hl7.org/CodeSystem/measure-population",
                      "code": "denominator",
                      "display": "Denominator"
                    }
                  ]
                },
                "count": 1
              },
              {
                "code": {
                  "coding": [
                    {
                      "system": "http://terminology.hl7.org/CodeSystem/measure-population",
                      "code": "denominator-exclusion",
                      "display": "Denominator Exclusion"
                    }
                  ]
                },
                "count": 0
              },
              {
                "code": {
                  "coding": [
                    {
                      "system": "http://terminology.hl7.org/CodeSystem/measure-population",
                      "code": "numerator",
                      "display": "Numerator"
                    }
                  ]
                },
                "count": 0
              },
              {
                "code": {
                  "coding": [
                    {
                      "system": "http://terminology.hl7.org/CodeSystem/measure-population",
                      "code": "denominator-exception",
                      "display": "Denominator Exception"
                    }
                  ]
                },
                "count": 0
              }
            ]
          }
        ],
        "evaluatedResource": [
          {
            "reference": "Patient/adc9cad7-519f-483e-9025-fdc6611cb158"
          },
          {
            "reference": "Encounter/06c759d4-2e80-41d2-bf00-d693329417d1"
          },
          {
            "reference": "MedicationRequest/b2450d69-c10e-41ff-a588-c91563f943a5"
          },
          {
            "reference": "Condition/6f9c3809-ea4c-4ff3-b956-0dbb41e01363"
          },
          {
            "reference": "Coverage/146db886-305a-4b61-b8c7-fb34619c48f2"
          },
          {
            "reference": "Organization/ddcf3381-4dca-4e97-b7f5-d783bb400865"
          }
        ]
      },
      "request": {
        "method": "PUT",
        "url": "MeasureReport/6bc1fa85-5d63-4afc-a47c-d71c68fcce68"
      }
    }
  ]
}