{
  "resourceType": "Bundle",
  "id": "63594c7a6aee9629c82981df",
  "type": "transaction",
  "entry": [
    {
      "fullUrl": "https://madie.cms.gov/Patient/36375c34-a390-4f85-93a5-af4d5c7e6b67",
      "resource": {
        "resourceType": "Patient",
        "id": "36375c34-a390-4f85-93a5-af4d5c7e6b67",
        "meta": {
          "profile": [
            "http://hl7.org/fhir/us/qicore/StructureDefinition/qicore-patient"
          ]
        },
        "text": {
          "status": "generated",
          "div": "<div xmlns=\"http://www.w3.org/1999/xhtml\"><div class=\"hapiHeaderText\">Risk_GestationalDiabetes <b>RISKPass </b></div><table class=\"hapiPropertyTable\"><tbody><tr><td>Date of birth</td><td><span>01 February 2004</span></td></tr></tbody></table></div>"
        },
        "extension": [
          {
            "url": "http://hl7.org/fhir/us/core/StructureDefinition/us-core-race",
            "extension": [
              {
                "url": "ombCategory",
                "valueCoding": {
                  "system": "urn:oid:2.16.840.1.113883.6.238",
                  "code": "1002-5",
                  "display": "American Indian or Alaska Native",
                  "userSelected": true
                }
              },
              {
                "url": "text",
                "valueString": "American Indian or Alaska Native"
              }
            ]
          },
          {
            "url": "http://hl7.org/fhir/us/core/StructureDefinition/us-core-ethnicity",
            "extension": [
              {
                "url": "ombCategory",
                "valueCoding": {
                  "system": "urn:oid:2.16.840.1.113883.6.238",
                  "code": "2135-2",
                  "display": "Hispanic or Latino",
                  "userSelected": true
                }
              },
              {
                "url": "text",
                "valueString": "Hispanic or Latino"
              }
            ]
          }
        ],
        "identifier": [
          {
            "type": {
              "coding": [
                {
                  "system": "http://terminology.hl7.org/CodeSystem/v2-0203",
                  "code": "MR"
                }
              ]
            },
            "system": "https://bonnie-fhir.healthit.gov/",
            "value": "63594c7a6aee9629c82981df"
          }
        ],
        "active": true,
        "name": [
          {
            "use": "usual",
            "family": "RiskPass",
            "given": [
              "Risk_GestationalDiabetes"
            ]
          }
        ],
        "gender": "female",
        "birthDate": "2004-02-01"
      },
      "request": {
        "method": "PUT",
        "url": "Patient/36375c34-a390-4f85-93a5-af4d5c7e6b67"
      }
    },
    {
      "fullUrl": "https://madie.cms.gov/Observation/fd635cb1-e5b4-4840-a966-c88e12f46a08",
      "resource": {
        "resourceType": "Observation",
        "id": "fd635cb1-e5b4-4840-a966-c88e12f46a08",
        "meta": {
          "profile": [
            "http://hl7.org/fhir/us/qicore/StructureDefinition/qicore-observation"
          ]
        },
        "status": "final",
        "category": [
          {
            "coding": [
              {
                "system": "http://terminology.hl7.org/CodeSystem/observation-category",
                "code": "exam",
                "display": "exam",
                "userSelected": true
              }
            ]
          }
        ],
        "code": {
          "coding": [
            {
              "system": "http://loinc.org",
              "code": "93857-1"
            }
          ]
        },
        "subject": {
          "reference": "Patient/36375c34-a390-4f85-93a5-af4d5c7e6b67"
        },
        "effectiveDateTime": "2024-02-01T08:00:00.000+00:00",
        "valueDateTime": "2024-02-01T08:00:00+00:00"
      },
      "request": {
        "method": "PUT",
        "url": "Observation/fd635cb1-e5b4-4840-a966-c88e12f46a08"
      }
    },
    {
      "fullUrl": "https://madie.cms.gov/Observation/1449fcf0-cab8-4ea2-b895-6487a3960558",
      "resource": {
        "resourceType": "Observation",
        "id": "1449fcf0-cab8-4ea2-b895-6487a3960558",
        "meta": {
          "profile": [
            "http://hl7.org/fhir/us/qicore/StructureDefinition/qicore-observation"
          ]
        },
        "status": "final",
        "category": [
          {
            "coding": [
              {
                "system": "http://terminology.hl7.org/CodeSystem/observation-category",
                "code": "exam",
                "display": "exam",
                "userSelected": true
              }
            ]
          }
        ],
        "code": {
          "coding": [
            {
              "system": "http://loinc.org",
              "code": "11778-8"
            }
          ]
        },
        "subject": {
          "reference": "Patient/36375c34-a390-4f85-93a5-af4d5c7e6b67"
        },
        "effectiveDateTime": "2024-02-01T08:00:00.000+00:00",
        "valueDateTime": "2024-02-01T00:00:00.000+00:00"
      },
      "request": {
        "method": "PUT",
        "url": "Observation/1449fcf0-cab8-4ea2-b895-6487a3960558"
      }
    },
    {
      "fullUrl": "https://madie.cms.gov/Encounter/9a6b4d6f-1d17-4bab-85dd-e5e112b82d10",
      "resource": {
        "resourceType": "Encounter",
        "id": "9a6b4d6f-1d17-4bab-85dd-e5e112b82d10",
        "meta": {
          "profile": [
            "http://hl7.org/fhir/us/qicore/StructureDefinition/qicore-encounter"
          ]
        },
        "status": "finished",
        "class": {
          "system": "http://terminology.hl7.org/CodeSystem/v3-ActCode",
          "code": "IMP",
          "display": "inpatient encounter"
        },
        "type": [
          {
            "coding": [
              {
                "system": "http://snomed.info/sct",
                "code": "183452005"
              }
            ]
          }
        ],
        "subject": {
          "reference": "Patient/36375c34-a390-4f85-93a5-af4d5c7e6b67"
        },
        "period": {
          "start": "2024-02-01T08:00:00.000Z",
          "end": "2024-02-05T08:15:00.000Z"
        },
        "diagnosis": [
          {
            "extension": [
              {
                "url": "http://hl7.org/fhir/us/qicore/StructureDefinition/qicore-encounter-diagnosisPresentOnAdmission",
                "valueCodeableConcept": {
                  "coding": [
                    {
                      "system": "https://www.cms.gov/Medicare/Medicare-Fee-for-Service-Payment/HospitalAcqCond/Coding",
                      "code": "Y"
                    }
                  ]
                }
              }
            ],
            "condition": {
              "reference": "Condition/b5d9c2e5-508c-4468-9b28-f5e1b6a3ec8a"
            }
          },
          {
            "extension": [
              {
                "url": "http://hl7.org/fhir/us/qicore/StructureDefinition/qicore-encounter-diagnosisPresentOnAdmission",
                "valueCodeableConcept": {
                  "coding": [
                    {
                      "system": "https://www.cms.gov/Medicare/Medicare-Fee-for-Service-Payment/HospitalAcqCond/Coding",
                      "code": "N"
                    }
                  ]
                }
              }
            ],
            "condition": {
              "reference": "Condition/2afbe5da-7f85-4f36-acc5-cf632d0faa42"
            }
          }
        ]
      },
      "request": {
        "method": "PUT",
        "url": "Encounter/9a6b4d6f-1d17-4bab-85dd-e5e112b82d10"
      }
    },
    {
      "fullUrl": "https://madie.cms.gov/Procedure/f8791049-61ed-4dc0-bd92-22aeb4952388",
      "resource": {
        "resourceType": "Procedure",
        "id": "f8791049-61ed-4dc0-bd92-22aeb4952388",
        "meta": {
          "profile": [
            "http://hl7.org/fhir/us/qicore/StructureDefinition/qicore-procedure"
          ]
        },
        "extension": [
          {
            "url": "http://hl7.org/fhir/us/qicore/StructureDefinition/qicore-recorded",
            "valueDateTime": "2013-04-05T09:35:00-04:00"
          }
        ],
        "status": "completed",
        "code": {
          "coding": [
            {
              "system": "http://snomed.info/sct",
              "code": "10745001"
            }
          ]
        },
        "subject": {
          "reference": "Patient/36375c34-a390-4f85-93a5-af4d5c7e6b67"
        },
        "performedDateTime": "2024-02-01T08:00:00.000+00:00"
      },
      "request": {
        "method": "PUT",
        "url": "Procedure/f8791049-61ed-4dc0-bd92-22aeb4952388"
      }
    },
    {
      "fullUrl": "https://madie.cms.gov/Condition/2afbe5da-7f85-4f36-acc5-cf632d0faa42",
      "resource": {
        "resourceType": "Condition",
        "id": "2afbe5da-7f85-4f36-acc5-cf632d0faa42",
        "meta": {
          "profile": [
            "http://hl7.org/fhir/us/qicore/StructureDefinition/qicore-condition"
          ]
        },
        "category": [
          {
            "coding": [
              {
                "system": "http://terminology.hl7.org/CodeSystem/condition-category",
                "code": "encounter-diagnosis",
                "display": "Encounter Diagnosis"
              }
            ]
          }
        ],
        "code": {
          "coding": [
            {
              "system": "http://hl7.org/fhir/sid/icd-10-cm",
              "version": "2023",
              "code": "A32.7",
              "display": "Listerial sepsis",
              "userSelected": true
            }
          ]
        },
        "subject": {
          "reference": "Patient/36375c34-a390-4f85-93a5-af4d5c7e6b67"
        },
        "recordedDate": "2024-10-26T08:00:00.000+00:00"
      },
      "request": {
        "method": "PUT",
        "url": "Condition/2afbe5da-7f85-4f36-acc5-cf632d0faa42"
      }
    },
    {
      "fullUrl": "https://madie.cms.gov/Condition/b5d9c2e5-508c-4468-9b28-f5e1b6a3ec8a",
      "resource": {
        "resourceType": "Condition",
        "id": "b5d9c2e5-508c-4468-9b28-f5e1b6a3ec8a",
        "meta": {
          "profile": [
            "http://hl7.org/fhir/us/qicore/StructureDefinition/qicore-condition"
          ]
        },
        "category": [
          {
            "coding": [
              {
                "system": "http://terminology.hl7.org/CodeSystem/condition-category",
                "code": "encounter-diagnosis",
                "display": "Encounter Diagnosis"
              }
            ]
          }
        ],
        "code": {
          "coding": [
            {
              "system": "http://hl7.org/fhir/sid/icd-10-cm",
              "version": "2023",
              "code": "O24.410",
              "display": "Gestational Diabetes",
              "userSelected": true
            }
          ]
        },
        "subject": {
          "reference": "Patient/36375c34-a390-4f85-93a5-af4d5c7e6b67"
        },
        "recordedDate": "2024-10-26T08:00:00.000+00:00"
      },
      "request": {
        "method": "PUT",
        "url": "Condition/b5d9c2e5-508c-4468-9b28-f5e1b6a3ec8a"
      }
    },
    {
      "fullUrl": "https://madie.cms.gov/MeasureReport/27d9f947-c5e8-4b72-9830-5225f2db655b",
      "resource": {
        "resourceType": "MeasureReport",
        "id": "27d9f947-c5e8-4b72-9830-5225f2db655b",
        "meta": {
          "profile": [
            "http://hl7.org/fhir/us/cqfmeasures/StructureDefinition/test-case-cqfm"
          ]
        },
        "contained": [
          {
            "resourceType": "Parameters",
            "id": "a2c001a6-10b2-4756-902d-8fb044c9243d-parameters",
            "parameter": [
              {
                "name": "subject",
                "valueString": "36375c34-a390-4f85-93a5-af4d5c7e6b67"
              }
            ]
          }
        ],
        "extension": [
          {
            "url": "http://hl7.org/fhir/us/cqfmeasures/StructureDefinition/cqfm-inputParameters",
            "valueReference": {
              "reference": "#a2c001a6-10b2-4756-902d-8fb044c9243d-parameters"
            }
          },
          {
            "url": "http://hl7.org/fhir/us/cqfmeasures/StructureDefinition/cqfm-testCaseDescription",
            "valueMarkdown": " Risk variable of gestational diabetes\n"
          }
        ],
        "modifierExtension": [
          {
            "url": "http://hl7.org/fhir/us/cqfmeasures/StructureDefinition/cqfm-isTestCase",
            "valueBoolean": true
          }
        ],
        "status": "complete",
        "type": "individual",
        "measure": "https://madie.cms.gov/Measure/SevereObstetricComplicationsFHIR",
        "period": {
          "start": "2024-01-01",
          "end": "2024-12-31"
        },
        "group": [
          {
            "population": [
              {
                "code": {
                  "coding": [
                    {
                      "system": "http://terminology.hl7.org/CodeSystem/measure-population",
                      "code": "initial-population",
                      "display": "Initial Population"
                    }
                  ]
                },
                "count": 1
              },
              {
                "code": {
                  "coding": [
                    {
                      "system": "http://terminology.hl7.org/CodeSystem/measure-population",
                      "code": "denominator",
                      "display": "Denominator"
                    }
                  ]
                },
                "count": 1
              },
              {
                "code": {
                  "coding": [
                    {
                      "system": "http://terminology.hl7.org/CodeSystem/measure-population",
                      "code": "denominator-exclusion",
                      "display": "Denominator Exclusion"
                    }
                  ]
                },
                "count": 0
              },
              {
                "code": {
                  "coding": [
                    {
                      "system": "http://terminology.hl7.org/CodeSystem/measure-population",
                      "code": "numerator",
                      "display": "Numerator"
                    }
                  ]
                },
                "count": 1
              }
            ]
          }
        ],
        "evaluatedResource": [
          {
            "reference": "Patient/36375c34-a390-4f85-93a5-af4d5c7e6b67"
          },
          {
            "reference": "Observation/fd635cb1-e5b4-4840-a966-c88e12f46a08"
          },
          {
            "reference": "Observation/1449fcf0-cab8-4ea2-b895-6487a3960558"
          },
          {
            "reference": "Encounter/9a6b4d6f-1d17-4bab-85dd-e5e112b82d10"
          },
          {
            "reference": "Procedure/f8791049-61ed-4dc0-bd92-22aeb4952388"
          },
          {
            "reference": "Condition/2afbe5da-7f85-4f36-acc5-cf632d0faa42"
          },
          {
            "reference": "Condition/b5d9c2e5-508c-4468-9b28-f5e1b6a3ec8a"
          }
        ]
      },
      "request": {
        "method": "PUT",
        "url": "MeasureReport/27d9f947-c5e8-4b72-9830-5225f2db655b"
      }
    }
  ]
}