{
  "resourceType": "Bundle",
  "id": "DENEXFail-DischargeToHomeInpatient",
  "type": "transaction",
  "entry": [
    {
      "fullUrl": "https://madie.cms.gov/Patient/614bf8bf-dfcd-4301-b098-30db51786bc5",
      "resource": {
        "resourceType": "Patient",
        "id": "614bf8bf-dfcd-4301-b098-30db51786bc5",
        "meta": {
          "profile": [
            "http://hl7.org/fhir/us/qicore/StructureDefinition/qicore-patient"
          ]
        },
        "extension": [
          {
            "url": "http://hl7.org/fhir/us/core/StructureDefinition/us-core-race",
            "extension": [
              {
                "url": "ombCategory",
                "valueCoding": {
                  "system": "urn:oid:2.16.840.1.113883.6.238",
                  "code": "2028-9",
                  "display": "Asian"
                }
              },
              {
                "url": "text",
                "valueString": "Asian"
              }
            ]
          },
          {
            "url": "http://hl7.org/fhir/us/core/StructureDefinition/us-core-ethnicity",
            "extension": [
              {
                "url": "ombCategory",
                "valueCoding": {
                  "system": "urn:oid:2.16.840.1.113883.6.238",
                  "code": "2135-2",
                  "display": "Hispanic or Latino"
                }
              },
              {
                "url": "text",
                "valueString": "Hispanic or Latino"
              }
            ]
          }
        ],
        "identifier": [
          {
            "system": "http://hospital.smarthealthit.org",
            "value": "999999995"
          }
        ],
        "name": [
          {
            "family": "Bertha",
            "given": [
              "Betty"
            ]
          }
        ],
        "gender": "female",
        "birthDate": "2005-01-01"
      },
      "request": {
        "method": "PUT",
        "url": "Patient/614bf8bf-dfcd-4301-b098-30db51786bc5"
      }
    },
    {
      "fullUrl": "https://madie.cms.gov/Encounter/94b6c6ec-4fb0-45b9-8a3b-cceabfa945d6",
      "resource": {
        "resourceType": "Encounter",
        "id": "94b6c6ec-4fb0-45b9-8a3b-cceabfa945d6",
        "meta": {
          "profile": [
            "http://hl7.org/fhir/us/qicore/StructureDefinition/qicore-encounter"
          ]
        },
        "status": "finished",
        "class": {
          "system": "http://terminology.hl7.org/CodeSystem/v3-ActCode",
          "code": "AMB",
          "display": "ambulatory"
        },
        "type": [
          {
            "coding": [
              {
                "system": "http://www.ada.org/cdt",
                "code": "D0120",
                "display": "periodic oral evaluation - established patient"
              }
            ]
          }
        ],
        "subject": {
          "reference": "Patient/614bf8bf-dfcd-4301-b098-30db51786bc5"
        },
        "period": {
          "start": "2025-01-01T00:00:00.000Z",
          "end": "2025-01-01T01:15:00.000Z"
        }
      },
      "request": {
        "method": "PUT",
        "url": "Encounter/94b6c6ec-4fb0-45b9-8a3b-cceabfa945d6"
      }
    },
    {
      "fullUrl": "https://madie.cms.gov/Encounter/94b6c6ec-4fb0-45b9-8a3b-cceabfa945d6.1",
      "resource": {
        "resourceType": "Encounter",
        "id": "94b6c6ec-4fb0-45b9-8a3b-cceabfa945d6.1",
        "meta": {
          "profile": [
            "http://hl7.org/fhir/us/qicore/StructureDefinition/qicore-encounter"
          ]
        },
        "status": "finished",
        "class": {
          "system": "http://terminology.hl7.org/CodeSystem/v3-ActCode",
          "code": "AMB",
          "display": "ambulatory"
        },
        "type": [
          {
            "coding": [
              {
                "system": "http://snomed.info/sct",
                "code": "183452005",
                "display": "Emergency hospital admission (procedure)"
              }
            ]
          }
        ],
        "subject": {
          "reference": "Patient/614bf8bf-dfcd-4301-b098-30db51786bc5"
        },
        "period": {
          "start": "2024-12-31T00:00:00.000Z",
          "end": "2024-12-31T23:59:59.000Z"
        },
        "hospitalization": {
          "dischargeDisposition": {
            "coding": [
              {
                "system": "http://snomed.info/sct",
                "code": "428361000124107",
                "display": "Discharge to home for hospice care (procedure)"
              }
            ]
          }
        }
      },
      "request": {
        "method": "PUT",
        "url": "Encounter/94b6c6ec-4fb0-45b9-8a3b-cceabfa945d6.1"
      }
    },
    {
      "fullUrl": "https://madie.cms.gov/MeasureReport/c6c04bfc-1508-4651-b143-c2dc14f2fb63",
      "resource": {
        "resourceType": "MeasureReport",
        "id": "c6c04bfc-1508-4651-b143-c2dc14f2fb63",
        "meta": {
          "profile": [
            "http://hl7.org/fhir/us/cqfmeasures/StructureDefinition/test-case-cqfm"
          ]
        },
        "contained": [
          {
            "resourceType": "Parameters",
            "id": "0e82a1ed-3c6e-4c57-88d6-48f55a9ea333-parameters",
            "parameter": [
              {
                "name": "subject",
                "valueString": "614bf8bf-dfcd-4301-b098-30db51786bc5"
              }
            ]
          }
        ],
        "extension": [
          {
            "url": "http://hl7.org/fhir/us/cqfmeasures/StructureDefinition/cqfm-inputParameters",
            "valueReference": {
              "reference": "#0e82a1ed-3c6e-4c57-88d6-48f55a9ea333-parameters"
            }
          },
          {
            "url": "http://hl7.org/fhir/us/cqfmeasures/StructureDefinition/cqfm-testCaseDescription",
            "valueMarkdown": "Encounter Inpatient Discharge to Home - For meeting 100% coverage"
          }
        ],
        "modifierExtension": [
          {
            "url": "http://hl7.org/fhir/us/cqfmeasures/StructureDefinition/cqfm-isTestCase",
            "valueBoolean": true
          }
        ],
        "status": "complete",
        "type": "individual",
        "measure": "https://madie.cms.gov/Measure/PrimaryCariesPreventionasOfferedbyDentistsFHIR",
        "period": {
          "start": "2025-01-01",
          "end": "2025-12-31"
        },
        "group": [
          {
            "population": [
              {
                "code": {
                  "coding": [
                    {
                      "system": "http://terminology.hl7.org/CodeSystem/measure-population",
                      "code": "initial-population",
                      "display": "Initial Population"
                    }
                  ]
                },
                "count": 1
              },
              {
                "code": {
                  "coding": [
                    {
                      "system": "http://terminology.hl7.org/CodeSystem/measure-population",
                      "code": "denominator",
                      "display": "Denominator"
                    }
                  ]
                },
                "count": 1
              },
              {
                "code": {
                  "coding": [
                    {
                      "system": "http://terminology.hl7.org/CodeSystem/measure-population",
                      "code": "denominator-exclusion",
                      "display": "Denominator Exclusion"
                    }
                  ]
                },
                "count": 0
              },
              {
                "code": {
                  "coding": [
                    {
                      "system": "http://terminology.hl7.org/CodeSystem/measure-population",
                      "code": "numerator",
                      "display": "Numerator"
                    }
                  ]
                },
                "count": 0
              }
            ]
          }
        ],
        "evaluatedResource": [
          {
            "reference": "Patient/614bf8bf-dfcd-4301-b098-30db51786bc5"
          },
          {
            "reference": "Encounter/94b6c6ec-4fb0-45b9-8a3b-cceabfa945d6"
          },
          {
            "reference": "Encounter/94b6c6ec-4fb0-45b9-8a3b-cceabfa945d6.1"
          }
        ]
      },
      "request": {
        "method": "PUT",
        "url": "MeasureReport/c6c04bfc-1508-4651-b143-c2dc14f2fb63"
      }
    }
  ]
}