{
  "resourceType": "Bundle",
  "id": "6129132002c62a011f2e5e15",
  "type": "transaction",
  "entry": [
    {
      "fullUrl": "https://madie.cms.gov/Patient/a9dbd21e-5569-4abb-90e4-8d8549bc57e1",
      "resource": {
        "resourceType": "Patient",
        "id": "a9dbd21e-5569-4abb-90e4-8d8549bc57e1",
        "meta": {
          "profile": [
            "http://hl7.org/fhir/us/qicore/StructureDefinition/qicore-patient"
          ]
        },
        "text": {
          "status": "generated",
          "div": "<div xmlns=\"http://www.w3.org/1999/xhtml\"><div class=\"hapiHeaderText\">EncEndsAfterMP <b>IPFAIL </b></div><table class=\"hapiPropertyTable\"><tbody><tr><td>Identifier</td><td>2434c5697e141c32ca86f9397b9d135e</td></tr><tr><td>Date of birth</td><td><span>21 August 1994</span></td></tr></tbody></table></div>"
        },
        "extension": [
          {
            "url": "http://hl7.org/fhir/us/core/StructureDefinition/us-core-race",
            "extension": [
              {
                "url": "ombCategory",
                "valueCoding": {
                  "system": "urn:oid:2.16.840.1.113883.6.238",
                  "code": "1002-5",
                  "display": "American Indian or Alaska Native",
                  "userSelected": true
                }
              },
              {
                "url": "text",
                "valueString": "American Indian or Alaska Native"
              }
            ]
          },
          {
            "url": "http://hl7.org/fhir/us/core/StructureDefinition/us-core-ethnicity",
            "extension": [
              {
                "url": "ombCategory",
                "valueCoding": {
                  "system": "urn:oid:2.16.840.1.113883.6.238",
                  "code": "2135-2",
                  "display": "Hispanic or Latino",
                  "userSelected": true
                }
              },
              {
                "url": "text",
                "valueString": "Hispanic or Latino"
              }
            ]
          }
        ],
        "identifier": [
          {
            "type": {
              "coding": [
                {
                  "system": "http://terminology.hl7.org/CodeSystem/v2-0203",
                  "code": "MR"
                }
              ]
            },
            "system": "https://bonnie-fhir.healthit.gov/",
            "value": "6129132002c62a011f2e5e15"
          }
        ],
        "active": true,
        "name": [
          {
            "use": "usual",
            "family": "IPFail",
            "given": [
              "EncEndsAfterMP"
            ]
          }
        ],
        "gender": "male",
        "birthDate": "2003-08-21"
      },
      "request": {
        "method": "PUT",
        "url": "Patient/a9dbd21e-5569-4abb-90e4-8d8549bc57e1"
      }
    },
    {
      "fullUrl": "https://madie.cms.gov/Encounter/34a53b12-8908-498c-b0f7-f68d5cc73308",
      "resource": {
        "resourceType": "Encounter",
        "id": "34a53b12-8908-498c-b0f7-f68d5cc73308",
        "meta": {
          "profile": [
            "http://hl7.org/fhir/us/qicore/StructureDefinition/qicore-encounter"
          ]
        },
        "status": "finished",
        "class": {
          "system": "http://terminology.hl7.org/CodeSystem/v3-ActCode",
          "code": "IMP",
          "display": "inpatient encounter",
          "userSelected": true
        },
        "type": [
          {
            "coding": [
              {
                "system": "http://snomed.info/sct",
                "code": "32485007"
              }
            ]
          }
        ],
        "subject": {
          "reference": "Patient/a9dbd21e-5569-4abb-90e4-8d8549bc57e1"
        },
        "period": {
          "start": "2025-12-20T09:30:00.000+00:00",
          "end": "2026-01-19T10:30:00.000+00:00"
        },
        "length": {
          "value": 30,
          "unit": "days"
        },
        "diagnosis": [
          {
            "condition": {
              "reference": "Condition/828a1cc5-b2c5-443a-8ddb-da3dcf0ffbc4"
            },
            "use": {
              "coding": [
                {
                  "system": "http://terminology.hl7.org/CodeSystem/diagnosis-role",
                  "code": "billing",
                  "display": "Billing"
                }
              ]
            },
            "rank": 1
          }
        ]
      },
      "request": {
        "method": "PUT",
        "url": "Encounter/34a53b12-8908-498c-b0f7-f68d5cc73308"
      }
    },
    {
      "fullUrl": "https://madie.cms.gov/Condition/828a1cc5-b2c5-443a-8ddb-da3dcf0ffbc4",
      "resource": {
        "resourceType": "Condition",
        "id": "828a1cc5-b2c5-443a-8ddb-da3dcf0ffbc4",
        "meta": {
          "profile": [
            "http://hl7.org/fhir/us/qicore/StructureDefinition/qicore-condition"
          ]
        },
        "clinicalStatus": {
          "coding": [
            {
              "system": "http://terminology.hl7.org/CodeSystem/condition-clinical",
              "code": "active"
            }
          ]
        },
        "verificationStatus": {
          "coding": [
            {
              "system": "http://terminology.hl7.org/CodeSystem/condition-ver-status",
              "code": "confirmed"
            }
          ]
        },
        "category": [
          {
            "coding": [
              {
                "system": "http://terminology.hl7.org/CodeSystem/condition-category",
                "code": "encounter-diagnosis",
                "display": "Encounter Diagnosis"
              }
            ]
          }
        ],
        "code": {
          "coding": [
            {
              "system": "http://snomed.info/sct",
              "version": "2020-09",
              "code": "111297002",
              "display": "Nonparalytic stroke (disorder)",
              "userSelected": true
            }
          ]
        },
        "subject": {
          "reference": "Patient/a9dbd21e-5569-4abb-90e4-8d8549bc57e1"
        },
        "recordedDate": "2025-07-15T08:00:00.000+00:00"
      },
      "request": {
        "method": "PUT",
        "url": "Condition/828a1cc5-b2c5-443a-8ddb-da3dcf0ffbc4"
      }
    },
    {
      "fullUrl": "https://madie.cms.gov/Coverage/0bc481ba-661e-4de1-9db9-d12379b11521",
      "resource": {
        "resourceType": "Coverage",
        "id": "0bc481ba-661e-4de1-9db9-d12379b11521",
        "meta": {
          "profile": [
            "http://hl7.org/fhir/us/qicore/StructureDefinition/qicore-coverage"
          ]
        },
        "status": "active",
        "beneficiary": {
          "reference": "Patient/a9dbd21e-5569-4abb-90e4-8d8549bc57e1"
        },
        "payor": [
          {
            "reference": "Organization/a8c73582-6b82-45c9-ac72-9e9ce96092f2"
          }
        ]
      },
      "request": {
        "method": "PUT",
        "url": "Coverage/0bc481ba-661e-4de1-9db9-d12379b11521"
      }
    },
    {
      "fullUrl": "https://madie.cms.gov/Organization/a8c73582-6b82-45c9-ac72-9e9ce96092f2",
      "resource": {
        "resourceType": "Organization",
        "id": "a8c73582-6b82-45c9-ac72-9e9ce96092f2",
        "meta": {
          "profile": [
            "http://hl7.org/fhir/us/qicore/StructureDefinition/qicore-organization"
          ]
        },
        "identifier": [
          {
            "use": "temp",
            "system": "urn:oid:2.16.840.1.113883.4.4",
            "value": "21-3259825"
          }
        ],
        "active": true,
        "type": [
          {
            "coding": [
              {
                "system": "http://terminology.hl7.org/CodeSystem/organization-type",
                "code": "pay",
                "display": "Payer"
              }
            ]
          }
        ],
        "name": "Blue Cross Blue Shield of Texas",
        "telecom": [
          {
            "system": "phone",
            "value": "(+1) 972-766-6900"
          }
        ],
        "address": [
          {
            "use": "billing",
            "type": "postal",
            "line": [
              "P.O. Box 660044"
            ],
            "city": "Dallas",
            "state": "TX",
            "postalCode": "75266-0044",
            "country": "USA"
          }
        ]
      },
      "request": {
        "method": "PUT",
        "url": "Organization/a8c73582-6b82-45c9-ac72-9e9ce96092f2"
      }
    },
    {
      "fullUrl": "https://madie.cms.gov/MeasureReport/f5e03492-c918-4fc7-9a28-0936ef2270c8",
      "resource": {
        "resourceType": "MeasureReport",
        "id": "f5e03492-c918-4fc7-9a28-0936ef2270c8",
        "meta": {
          "profile": [
            "http://hl7.org/fhir/us/cqfmeasures/StructureDefinition/test-case-cqfm"
          ]
        },
        "contained": [
          {
            "resourceType": "Parameters",
            "id": "d9067277-383c-42d1-9e25-b069100c53dc-parameters",
            "parameter": [
              {
                "name": "subject",
                "valueString": "a9dbd21e-5569-4abb-90e4-8d8549bc57e1"
              }
            ]
          }
        ],
        "extension": [
          {
            "url": "http://hl7.org/fhir/us/cqfmeasures/StructureDefinition/cqfm-inputParameters",
            "valueReference": {
              "reference": "#d9067277-383c-42d1-9e25-b069100c53dc-parameters"
            }
          },
          {
            "url": "http://hl7.org/fhir/us/cqfmeasures/StructureDefinition/cqfm-testCaseDescription",
            "valueMarkdown": "Patient is 18 with Non-Elective Inpatient Encounter ends after MP with principal diagnosis of stroke\n"
          }
        ],
        "modifierExtension": [
          {
            "url": "http://hl7.org/fhir/us/cqfmeasures/StructureDefinition/cqfm-isTestCase",
            "valueBoolean": true
          }
        ],
        "status": "complete",
        "type": "individual",
        "measure": "https://madie.cms.gov/Measure/DischargedonAntithromboticTherapyFHIR",
        "period": {
          "start": "2025-01-01",
          "end": "2025-12-31"
        },
        "group": [
          {
            "population": [
              {
                "code": {
                  "coding": [
                    {
                      "system": "http://terminology.hl7.org/CodeSystem/measure-population",
                      "code": "initial-population",
                      "display": "Initial Population"
                    }
                  ]
                },
                "count": 0
              },
              {
                "code": {
                  "coding": [
                    {
                      "system": "http://terminology.hl7.org/CodeSystem/measure-population",
                      "code": "denominator",
                      "display": "Denominator"
                    }
                  ]
                },
                "count": 0
              },
              {
                "code": {
                  "coding": [
                    {
                      "system": "http://terminology.hl7.org/CodeSystem/measure-population",
                      "code": "denominator-exclusion",
                      "display": "Denominator Exclusion"
                    }
                  ]
                },
                "count": 0
              },
              {
                "code": {
                  "coding": [
                    {
                      "system": "http://terminology.hl7.org/CodeSystem/measure-population",
                      "code": "numerator",
                      "display": "Numerator"
                    }
                  ]
                },
                "count": 0
              },
              {
                "code": {
                  "coding": [
                    {
                      "system": "http://terminology.hl7.org/CodeSystem/measure-population",
                      "code": "denominator-exception",
                      "display": "Denominator Exception"
                    }
                  ]
                },
                "count": 0
              }
            ]
          }
        ],
        "evaluatedResource": [
          {
            "reference": "Patient/a9dbd21e-5569-4abb-90e4-8d8549bc57e1"
          },
          {
            "reference": "Encounter/34a53b12-8908-498c-b0f7-f68d5cc73308"
          },
          {
            "reference": "Condition/828a1cc5-b2c5-443a-8ddb-da3dcf0ffbc4"
          },
          {
            "reference": "Coverage/0bc481ba-661e-4de1-9db9-d12379b11521"
          },
          {
            "reference": "Organization/a8c73582-6b82-45c9-ac72-9e9ce96092f2"
          }
        ]
      },
      "request": {
        "method": "PUT",
        "url": "MeasureReport/f5e03492-c918-4fc7-9a28-0936ef2270c8"
      }
    }
  ]
}