{
  "resourceType": "Bundle",
  "id": "363b28a9-e77d-4fee-aaaf-73ebb35bc57c",
  "type": "transaction",
  "entry": [
    {
      "fullUrl": "https://madie.cms.gov/Patient/8fdcd7fa-4333-4607-ab93-4eec55ee8e61",
      "resource": {
        "resourceType": "Patient",
        "id": "8fdcd7fa-4333-4607-ab93-4eec55ee8e61",
        "meta": {
          "profile": [
            "http://hl7.org/fhir/us/qicore/StructureDefinition/qicore-patient"
          ]
        },
        "extension": [
          {
            "url": "http://hl7.org/fhir/us/core/StructureDefinition/us-core-race",
            "extension": [
              {
                "url": "ombCategory",
                "valueCoding": {
                  "system": "urn:oid:2.16.840.1.113883.6.238",
                  "code": "2106-3",
                  "display": "White"
                }
              },
              {
                "url": "text",
                "valueString": "White"
              }
            ]
          },
          {
            "url": "http://hl7.org/fhir/us/core/StructureDefinition/us-core-ethnicity",
            "extension": [
              {
                "url": "ombCategory",
                "valueCoding": {
                  "system": "urn:oid:2.16.840.1.113883.6.238",
                  "code": "2135-2",
                  "display": "Hispanic or Latino"
                }
              },
              {
                "url": "text",
                "valueString": "Hispanic or Latino"
              }
            ]
          }
        ],
        "identifier": [
          {
            "system": "http://hospital.smarthealthit.org",
            "value": "999999999"
          }
        ],
        "name": [
          {
            "family": "Example",
            "given": [
              "Patient"
            ]
          }
        ],
        "gender": "other",
        "birthDate": "1955-01-01"
      },
      "request": {
        "method": "PUT",
        "url": "Patient/8fdcd7fa-4333-4607-ab93-4eec55ee8e61"
      }
    },
    {
      "fullUrl": "https://madie.cms.gov/Encounter/cb588f86-f849-4c9b-acdc-030c1272356e",
      "resource": {
        "resourceType": "Encounter",
        "id": "cb588f86-f849-4c9b-acdc-030c1272356e",
        "meta": {
          "profile": [
            "http://hl7.org/fhir/us/qicore/StructureDefinition/qicore-encounter"
          ]
        },
        "status": "finished",
        "class": {
          "system": "http://terminology.hl7.org/CodeSystem/v3-ActCode",
          "code": "IMP",
          "display": "inpatient encounter"
        },
        "type": [
          {
            "coding": [
              {
                "system": "http://snomed.info/sct",
                "code": "183452005"
              }
            ]
          }
        ],
        "subject": {
          "reference": "Patient/8fdcd7fa-4333-4607-ab93-4eec55ee8e61"
        },
        "period": {
          "start": "2025-04-07T08:00:00.000Z",
          "end": "2025-04-12T08:15:00.000Z"
        }
      },
      "request": {
        "method": "PUT",
        "url": "Encounter/cb588f86-f849-4c9b-acdc-030c1272356e"
      }
    },
    {
      "fullUrl": "https://madie.cms.gov/Condition/41c4a183-c099-4b89-a80d-9b97995d78f0",
      "resource": {
        "resourceType": "Condition",
        "id": "41c4a183-c099-4b89-a80d-9b97995d78f0",
        "meta": {
          "profile": [
            "http://hl7.org/fhir/us/qicore/StructureDefinition/qicore-condition"
          ]
        },
        "category": [
          {
            "coding": [
              {
                "system": "http://terminology.hl7.org/CodeSystem/condition-category",
                "code": "encounter-diagnosis",
                "display": "Encounter Diagnosis"
              }
            ]
          }
        ],
        "code": {
          "coding": [
            {
              "system": "http://hl7.org/fhir/sid/icd-10-cm",
              "code": "E10.21",
              "display": "Type 1 diabetes mellitus with diabetic nephropathy"
            }
          ]
        },
        "subject": {
          "reference": "Patient/8fdcd7fa-4333-4607-ab93-4eec55ee8e61"
        },
        "onsetDateTime": "2010-01-02"
      },
      "request": {
        "method": "PUT",
        "url": "Condition/41c4a183-c099-4b89-a80d-9b97995d78f0"
      }
    },
    {
      "fullUrl": "https://madie.cms.gov/Observation/9cb15ac8-930a-4a64-865e-21d90f65f087",
      "resource": {
        "resourceType": "Observation",
        "id": "9cb15ac8-930a-4a64-865e-21d90f65f087",
        "meta": {
          "profile": [
            "http://hl7.org/fhir/us/qicore/StructureDefinition/qicore-observation"
          ]
        },
        "status": "final",
        "category": [
          {
            "coding": [
              {
                "system": "http://terminology.hl7.org/CodeSystem/observation-category",
                "code": "laboratory",
                "display": "Laboratory"
              }
            ]
          }
        ],
        "code": {
          "coding": [
            {
              "system": "http://loinc.org",
              "version": "2.72",
              "code": "1556-0",
              "display": "Fasting glucose [Mass/volume] in Capillary blood",
              "userSelected": true
            }
          ]
        },
        "subject": {
          "reference": "Patient/8fdcd7fa-4333-4607-ab93-4eec55ee8e61"
        },
        "effectiveDateTime": "2025-04-09T07:00:00.000+00:00",
        "valueQuantity": {
          "value": 201,
          "unit": "mg/dL"
        }
      },
      "request": {
        "method": "PUT",
        "url": "Observation/9cb15ac8-930a-4a64-865e-21d90f65f087"
      }
    },
    {
      "fullUrl": "https://madie.cms.gov/Observation/9cf38807-994d-400d-abb7-fa9b83b09059",
      "resource": {
        "resourceType": "Observation",
        "id": "9cf38807-994d-400d-abb7-fa9b83b09059",
        "meta": {
          "profile": [
            "http://hl7.org/fhir/us/qicore/StructureDefinition/qicore-observation"
          ]
        },
        "status": "final",
        "category": [
          {
            "coding": [
              {
                "system": "http://terminology.hl7.org/CodeSystem/observation-category",
                "code": "laboratory",
                "display": "Laboratory"
              }
            ]
          }
        ],
        "code": {
          "coding": [
            {
              "system": "http://loinc.org",
              "version": "2.72",
              "code": "1556-0",
              "display": "Fasting glucose [Mass/volume] in Capillary blood",
              "userSelected": true
            }
          ]
        },
        "subject": {
          "reference": "Patient/8fdcd7fa-4333-4607-ab93-4eec55ee8e61"
        },
        "effectiveDateTime": "2025-04-10T07:00:00.000+00:00",
        "valueQuantity": {
          "value": 200,
          "unit": "mg/dL"
        }
      },
      "request": {
        "method": "PUT",
        "url": "Observation/9cf38807-994d-400d-abb7-fa9b83b09059"
      }
    },
    {
      "fullUrl": "https://madie.cms.gov/MeasureReport/724a3d95-158d-4c18-946c-83fc9bd7eecf",
      "resource": {
        "resourceType": "MeasureReport",
        "id": "724a3d95-158d-4c18-946c-83fc9bd7eecf",
        "meta": {
          "profile": [
            "http://hl7.org/fhir/us/cqfmeasures/StructureDefinition/test-case-cqfm"
          ]
        },
        "contained": [
          {
            "resourceType": "Parameters",
            "id": "51e9e3d5-5da0-4e8a-9a30-d5f78903434c-parameters",
            "parameter": [
              {
                "name": "subject",
                "valueString": "8fdcd7fa-4333-4607-ab93-4eec55ee8e61"
              }
            ]
          }
        ],
        "extension": [
          {
            "url": "http://hl7.org/fhir/us/cqfmeasures/StructureDefinition/cqfm-inputParameters",
            "valueReference": {
              "reference": "#51e9e3d5-5da0-4e8a-9a30-d5f78903434c-parameters"
            }
          },
          {
            "url": "http://hl7.org/fhir/us/cqfmeasures/StructureDefinition/cqfm-testCaseDescription",
            "valueMarkdown": "IP encounter for patient w/diabetes. Had 2 consecutive days of glucose >200mg/dL, then followed by a day with no glucose level result. Meets Numerator. "
          }
        ],
        "modifierExtension": [
          {
            "url": "http://hl7.org/fhir/us/cqfmeasures/StructureDefinition/cqfm-isTestCase",
            "valueBoolean": true
          }
        ],
        "status": "complete",
        "type": "individual",
        "measure": "https://madie.cms.gov/Measure/HospitalHarmHyperglycemiainHospitalizedPatientsFHIR",
        "period": {
          "start": "2025-01-01",
          "end": "2025-12-31"
        },
        "group": [
          {
            "population": [
              {
                "code": {
                  "coding": [
                    {
                      "system": "http://terminology.hl7.org/CodeSystem/measure-population",
                      "code": "initial-population",
                      "display": "Initial Population"
                    }
                  ]
                },
                "count": 1
              },
              {
                "code": {
                  "coding": [
                    {
                      "system": "http://terminology.hl7.org/CodeSystem/measure-population",
                      "code": "denominator",
                      "display": "Denominator"
                    }
                  ]
                },
                "count": 1
              },
              {
                "code": {
                  "coding": [
                    {
                      "system": "http://terminology.hl7.org/CodeSystem/measure-population",
                      "code": "denominator-exclusion",
                      "display": "Denominator Exclusion"
                    }
                  ]
                },
                "count": 0
              },
              {
                "code": {
                  "coding": [
                    {
                      "system": "http://terminology.hl7.org/CodeSystem/measure-population",
                      "code": "numerator",
                      "display": "Numerator"
                    }
                  ]
                },
                "count": 1
              },
              {
                "code": {
                  "coding": [
                    {
                      "system": "http://terminology.hl7.org/CodeSystem/measure-population",
                      "code": "denominator-observation",
                      "display": "DenominatorObservation"
                    }
                  ]
                },
                "count": 4
              },
              {
                "code": {
                  "coding": [
                    {
                      "system": "http://terminology.hl7.org/CodeSystem/measure-population",
                      "code": "numerator-observation",
                      "display": "Numerator Observation"
                    }
                  ]
                },
                "count": 1
              }
            ]
          }
        ],
        "evaluatedResource": [
          {
            "reference": "Patient/8fdcd7fa-4333-4607-ab93-4eec55ee8e61"
          },
          {
            "reference": "Encounter/cb588f86-f849-4c9b-acdc-030c1272356e"
          },
          {
            "reference": "Condition/41c4a183-c099-4b89-a80d-9b97995d78f0"
          },
          {
            "reference": "Observation/9cb15ac8-930a-4a64-865e-21d90f65f087"
          },
          {
            "reference": "Observation/9cf38807-994d-400d-abb7-fa9b83b09059"
          }
        ]
      },
      "request": {
        "method": "PUT",
        "url": "MeasureReport/724a3d95-158d-4c18-946c-83fc9bd7eecf"
      }
    }
  ]
}