{
  "resourceType": "Bundle",
  "id": "6129133602c62a011f2e664f",
  "type": "transaction",
  "entry": [
    {
      "fullUrl": "https://madie.cms.gov/Patient/7047aa33-2d23-4f50-bfd5-509cecdd9bb1",
      "resource": {
        "resourceType": "Patient",
        "id": "7047aa33-2d23-4f50-bfd5-509cecdd9bb1",
        "meta": {
          "profile": [
            "http://hl7.org/fhir/us/qicore/StructureDefinition/qicore-patient"
          ]
        },
        "text": {
          "status": "generated",
          "div": "<div xmlns=\"http://www.w3.org/1999/xhtml\"><div class=\"hapiHeaderText\">Custom Code <b>NUMERFAIL </b></div><table class=\"hapiPropertyTable\"><tbody><tr><td>Identifier</td><td>89f47adc6f11be26f80b2f31861450ed</td></tr><tr><td>Date of birth</td><td><span>21 August 1994</span></td></tr></tbody></table></div>"
        },
        "extension": [
          {
            "url": "http://hl7.org/fhir/us/core/StructureDefinition/us-core-race",
            "extension": [
              {
                "url": "ombCategory",
                "valueCoding": {
                  "system": "urn:oid:2.16.840.1.113883.6.238",
                  "code": "1002-5",
                  "display": "American Indian or Alaska Native",
                  "userSelected": true
                }
              },
              {
                "url": "text",
                "valueString": "American Indian or Alaska Native"
              }
            ]
          },
          {
            "url": "http://hl7.org/fhir/us/core/StructureDefinition/us-core-ethnicity",
            "extension": [
              {
                "url": "ombCategory",
                "valueCoding": {
                  "system": "urn:oid:2.16.840.1.113883.6.238",
                  "code": "2135-2",
                  "display": "Hispanic or Latino",
                  "userSelected": true
                }
              },
              {
                "url": "text",
                "valueString": "Hispanic or Latino"
              }
            ]
          }
        ],
        "identifier": [
          {
            "type": {
              "coding": [
                {
                  "system": "http://terminology.hl7.org/CodeSystem/v2-0203",
                  "code": "MR"
                }
              ]
            },
            "system": "https://bonnie-fhir.healthit.gov/",
            "value": "6129133602c62a011f2e664f"
          }
        ],
        "active": true,
        "name": [
          {
            "use": "usual",
            "family": "NUMERFail",
            "given": [
              "Custom Code"
            ]
          }
        ],
        "gender": "male",
        "birthDate": "2003-08-21"
      },
      "request": {
        "method": "PUT",
        "url": "Patient/7047aa33-2d23-4f50-bfd5-509cecdd9bb1"
      }
    },
    {
      "fullUrl": "https://madie.cms.gov/Encounter/4671a2c1-72de-40eb-88a8-3393fd8af8c4",
      "resource": {
        "resourceType": "Encounter",
        "id": "4671a2c1-72de-40eb-88a8-3393fd8af8c4",
        "meta": {
          "profile": [
            "http://hl7.org/fhir/us/qicore/StructureDefinition/qicore-encounter"
          ]
        },
        "status": "finished",
        "class": {
          "system": "http://terminology.hl7.org/CodeSystem/v3-ActCode",
          "code": "IMP",
          "display": "inpatient encounter",
          "userSelected": true
        },
        "type": [
          {
            "coding": [
              {
                "system": "http://snomed.info/sct",
                "code": "32485007"
              }
            ]
          }
        ],
        "subject": {
          "reference": "Patient/7047aa33-2d23-4f50-bfd5-509cecdd9bb1"
        },
        "period": {
          "start": "2025-10-10T09:30:00.000+00:00",
          "end": "2025-10-12T10:30:00.000+00:00"
        },
        "length": {
          "value": 2,
          "unit": "days"
        },
        "diagnosis": [
          {
            "condition": {
              "reference": "Condition/312b5217-b353-4bf9-83d8-74527412f7ba"
            },
            "use": {
              "coding": [
                {
                  "system": "http://terminology.hl7.org/CodeSystem/diagnosis-role",
                  "code": "billing",
                  "display": "Billing"
                }
              ]
            },
            "rank": 1
          }
        ]
      },
      "request": {
        "method": "PUT",
        "url": "Encounter/4671a2c1-72de-40eb-88a8-3393fd8af8c4"
      }
    },
    {
      "fullUrl": "https://madie.cms.gov/MedicationRequest/f050ab0e-142a-4b8a-a08c-1f7bec111d29",
      "resource": {
        "resourceType": "MedicationRequest",
        "id": "f050ab0e-142a-4b8a-a08c-1f7bec111d29",
        "meta": {
          "profile": [
            "http://hl7.org/fhir/us/qicore/StructureDefinition/qicore-medicationrequest"
          ]
        },
        "status": "active",
        "intent": "order",
        "category": [
          {
            "coding": [
              {
                "system": "http://terminology.hl7.org/CodeSystem/medicationrequest-category",
                "code": "discharge",
                "display": "Discharge",
                "userSelected": true
              }
            ]
          }
        ],
        "medicationCodeableConcept": {
          "coding": [
            {
              "system": "http://www.nlm.nih.gov/research/umls/rxnorm",
              "code": "1006608"
            }
          ]
        },
        "subject": {
          "reference": "Patient/7047aa33-2d23-4f50-bfd5-509cecdd9bb1"
        },
        "authoredOn": "2025-10-10T10:00:00.000+00:00",
        "requester": {
          "reference": "Practitioner/example"
        }
      },
      "request": {
        "method": "PUT",
        "url": "MedicationRequest/f050ab0e-142a-4b8a-a08c-1f7bec111d29"
      }
    },
    {
      "fullUrl": "https://madie.cms.gov/Condition/312b5217-b353-4bf9-83d8-74527412f7ba",
      "resource": {
        "resourceType": "Condition",
        "id": "312b5217-b353-4bf9-83d8-74527412f7ba",
        "meta": {
          "profile": [
            "http://hl7.org/fhir/us/qicore/StructureDefinition/qicore-condition"
          ]
        },
        "clinicalStatus": {
          "coding": [
            {
              "system": "http://terminology.hl7.org/CodeSystem/condition-clinical",
              "code": "active"
            }
          ]
        },
        "verificationStatus": {
          "coding": [
            {
              "system": "http://terminology.hl7.org/CodeSystem/condition-ver-status",
              "code": "confirmed"
            }
          ]
        },
        "category": [
          {
            "coding": [
              {
                "system": "http://terminology.hl7.org/CodeSystem/condition-category",
                "code": "encounter-diagnosis",
                "display": "Encounter Diagnosis"
              }
            ]
          }
        ],
        "code": {
          "coding": [
            {
              "system": "http://snomed.info/sct",
              "version": "2020-09",
              "code": "111297002",
              "display": "Nonparalytic stroke (disorder)",
              "userSelected": true
            }
          ]
        },
        "subject": {
          "reference": "Patient/7047aa33-2d23-4f50-bfd5-509cecdd9bb1"
        },
        "recordedDate": "2025-07-15T08:00:00.000+00:00"
      },
      "request": {
        "method": "PUT",
        "url": "Condition/312b5217-b353-4bf9-83d8-74527412f7ba"
      }
    },
    {
      "fullUrl": "https://madie.cms.gov/Coverage/e558e1ef-ef22-4734-a8dd-f81e0afea17c",
      "resource": {
        "resourceType": "Coverage",
        "id": "e558e1ef-ef22-4734-a8dd-f81e0afea17c",
        "meta": {
          "profile": [
            "http://hl7.org/fhir/us/qicore/StructureDefinition/qicore-coverage"
          ]
        },
        "status": "active",
        "beneficiary": {
          "reference": "Patient/7047aa33-2d23-4f50-bfd5-509cecdd9bb1"
        },
        "payor": [
          {
            "reference": "Organization/4318fdfb-0dde-436d-9a76-56736cd83aef"
          }
        ]
      },
      "request": {
        "method": "PUT",
        "url": "Coverage/e558e1ef-ef22-4734-a8dd-f81e0afea17c"
      }
    },
    {
      "fullUrl": "https://madie.cms.gov/Organization/4318fdfb-0dde-436d-9a76-56736cd83aef",
      "resource": {
        "resourceType": "Organization",
        "id": "4318fdfb-0dde-436d-9a76-56736cd83aef",
        "meta": {
          "profile": [
            "http://hl7.org/fhir/us/qicore/StructureDefinition/qicore-organization"
          ]
        },
        "identifier": [
          {
            "use": "temp",
            "system": "urn:oid:2.16.840.1.113883.4.4",
            "value": "21-3259825"
          }
        ],
        "active": true,
        "type": [
          {
            "coding": [
              {
                "system": "http://terminology.hl7.org/CodeSystem/organization-type",
                "code": "pay",
                "display": "Payer"
              }
            ]
          }
        ],
        "name": "Blue Cross Blue Shield of Texas",
        "telecom": [
          {
            "system": "phone",
            "value": "(+1) 972-766-6900"
          }
        ],
        "address": [
          {
            "use": "billing",
            "type": "postal",
            "line": [
              "P.O. Box 660044"
            ],
            "city": "Dallas",
            "state": "TX",
            "postalCode": "75266-0044",
            "country": "USA"
          }
        ]
      },
      "request": {
        "method": "PUT",
        "url": "Organization/4318fdfb-0dde-436d-9a76-56736cd83aef"
      }
    },
    {
      "fullUrl": "https://madie.cms.gov/MeasureReport/0aa96b16-9648-489a-8264-523a89af34ae",
      "resource": {
        "resourceType": "MeasureReport",
        "id": "0aa96b16-9648-489a-8264-523a89af34ae",
        "meta": {
          "profile": [
            "http://hl7.org/fhir/us/cqfmeasures/StructureDefinition/test-case-cqfm"
          ]
        },
        "contained": [
          {
            "resourceType": "Parameters",
            "id": "b30ffdfb-49ed-43f3-aa70-cee44969c7f3-parameters",
            "parameter": [
              {
                "name": "subject",
                "valueString": "7047aa33-2d23-4f50-bfd5-509cecdd9bb1"
              }
            ]
          }
        ],
        "extension": [
          {
            "url": "http://hl7.org/fhir/us/cqfmeasures/StructureDefinition/cqfm-inputParameters",
            "valueReference": {
              "reference": "#b30ffdfb-49ed-43f3-aa70-cee44969c7f3-parameters"
            }
          },
          {
            "url": "http://hl7.org/fhir/us/cqfmeasures/StructureDefinition/cqfm-testCaseDescription",
            "valueMarkdown": "Patient is 18 with Non-Elective Inpatient Encounter (LOS 120 days) with principal diagnosis of ischemic stroke ends during MP received medication not found in antithrombotic value set during IP encounter\n"
          }
        ],
        "modifierExtension": [
          {
            "url": "http://hl7.org/fhir/us/cqfmeasures/StructureDefinition/cqfm-isTestCase",
            "valueBoolean": true
          }
        ],
        "status": "complete",
        "type": "individual",
        "measure": "https://madie.cms.gov/Measure/DischargedonAntithromboticTherapyFHIR",
        "period": {
          "start": "2025-01-01",
          "end": "2025-12-31"
        },
        "group": [
          {
            "population": [
              {
                "code": {
                  "coding": [
                    {
                      "system": "http://terminology.hl7.org/CodeSystem/measure-population",
                      "code": "initial-population",
                      "display": "Initial Population"
                    }
                  ]
                },
                "count": 1
              },
              {
                "code": {
                  "coding": [
                    {
                      "system": "http://terminology.hl7.org/CodeSystem/measure-population",
                      "code": "denominator",
                      "display": "Denominator"
                    }
                  ]
                },
                "count": 1
              },
              {
                "code": {
                  "coding": [
                    {
                      "system": "http://terminology.hl7.org/CodeSystem/measure-population",
                      "code": "denominator-exclusion",
                      "display": "Denominator Exclusion"
                    }
                  ]
                },
                "count": 0
              },
              {
                "code": {
                  "coding": [
                    {
                      "system": "http://terminology.hl7.org/CodeSystem/measure-population",
                      "code": "numerator",
                      "display": "Numerator"
                    }
                  ]
                },
                "count": 0
              },
              {
                "code": {
                  "coding": [
                    {
                      "system": "http://terminology.hl7.org/CodeSystem/measure-population",
                      "code": "denominator-exception",
                      "display": "Denominator Exception"
                    }
                  ]
                },
                "count": 0
              }
            ]
          }
        ],
        "evaluatedResource": [
          {
            "reference": "Patient/7047aa33-2d23-4f50-bfd5-509cecdd9bb1"
          },
          {
            "reference": "Encounter/4671a2c1-72de-40eb-88a8-3393fd8af8c4"
          },
          {
            "reference": "MedicationRequest/f050ab0e-142a-4b8a-a08c-1f7bec111d29"
          },
          {
            "reference": "Condition/312b5217-b353-4bf9-83d8-74527412f7ba"
          },
          {
            "reference": "Coverage/e558e1ef-ef22-4734-a8dd-f81e0afea17c"
          },
          {
            "reference": "Organization/4318fdfb-0dde-436d-9a76-56736cd83aef"
          }
        ]
      },
      "request": {
        "method": "PUT",
        "url": "MeasureReport/0aa96b16-9648-489a-8264-523a89af34ae"
      }
    }
  ]
}