{
  "resourceType": "Bundle",
  "id": "633b3f9e0968f80122503cc5",
  "type": "transaction",
  "entry": [
    {
      "fullUrl": "https://madie.cms.gov/Patient/169f4d1c-1c98-445c-96db-7710d85f6815",
      "resource": {
        "resourceType": "Patient",
        "id": "169f4d1c-1c98-445c-96db-7710d85f6815",
        "meta": {
          "profile": [
            "http://hl7.org/fhir/us/qicore/StructureDefinition/qicore-patient"
          ]
        },
        "text": {
          "status": "generated",
          "div": "<div xmlns=\"http://www.w3.org/1999/xhtml\"><div class=\"hapiHeaderText\">DelProcStart=EncStartMinus1Min <b>IPPASS </b></div><table class=\"hapiPropertyTable\"><tbody><tr><td>Date of birth</td><td><span>31 January 2004</span></td></tr></tbody></table></div>"
        },
        "extension": [
          {
            "url": "http://hl7.org/fhir/us/core/StructureDefinition/us-core-race",
            "extension": [
              {
                "url": "ombCategory",
                "valueCoding": {
                  "system": "urn:oid:2.16.840.1.113883.6.238",
                  "code": "1002-5",
                  "display": "American Indian or Alaska Native",
                  "userSelected": true
                }
              },
              {
                "url": "text",
                "valueString": "American Indian or Alaska Native"
              }
            ]
          },
          {
            "url": "http://hl7.org/fhir/us/core/StructureDefinition/us-core-ethnicity",
            "extension": [
              {
                "url": "ombCategory",
                "valueCoding": {
                  "system": "urn:oid:2.16.840.1.113883.6.238",
                  "code": "2135-2",
                  "display": "Hispanic or Latino",
                  "userSelected": true
                }
              },
              {
                "url": "text",
                "valueString": "Hispanic or Latino"
              }
            ]
          }
        ],
        "identifier": [
          {
            "type": {
              "coding": [
                {
                  "system": "http://terminology.hl7.org/CodeSystem/v2-0203",
                  "code": "MR"
                }
              ]
            },
            "system": "https://bonnie-fhir.healthit.gov/",
            "value": "633b3f9e0968f80122503cc5"
          }
        ],
        "active": true,
        "name": [
          {
            "use": "usual",
            "family": "IPPass",
            "given": [
              "DelProcStart_EncStartMinus1Min"
            ]
          }
        ],
        "gender": "female",
        "birthDate": "2004-01-31"
      },
      "request": {
        "method": "PUT",
        "url": "Patient/169f4d1c-1c98-445c-96db-7710d85f6815"
      }
    },
    {
      "fullUrl": "https://madie.cms.gov/Encounter/56a02923-e592-4d45-bb7c-1a5fca859030",
      "resource": {
        "resourceType": "Encounter",
        "id": "56a02923-e592-4d45-bb7c-1a5fca859030",
        "meta": {
          "profile": [
            "http://hl7.org/fhir/us/qicore/StructureDefinition/qicore-encounter"
          ]
        },
        "status": "finished",
        "class": {
          "system": "http://terminology.hl7.org/CodeSystem/v3-ActCode",
          "code": "IMP",
          "display": "inpatient encounter"
        },
        "type": [
          {
            "coding": [
              {
                "system": "http://snomed.info/sct",
                "code": "183452005"
              }
            ]
          }
        ],
        "subject": {
          "reference": "Patient/169f4d1c-1c98-445c-96db-7710d85f6815"
        },
        "period": {
          "start": "2024-02-01T08:00:00.000Z",
          "end": "2024-06-07T08:15:00.000Z"
        }
      },
      "request": {
        "method": "PUT",
        "url": "Encounter/56a02923-e592-4d45-bb7c-1a5fca859030"
      }
    },
    {
      "fullUrl": "https://madie.cms.gov/Procedure/0b6aaff5-9e56-4efc-bb15-bfef7b0cc2b2",
      "resource": {
        "resourceType": "Procedure",
        "id": "0b6aaff5-9e56-4efc-bb15-bfef7b0cc2b2",
        "meta": {
          "profile": [
            "http://hl7.org/fhir/us/qicore/StructureDefinition/qicore-procedure"
          ]
        },
        "extension": [
          {
            "url": "http://hl7.org/fhir/us/qicore/StructureDefinition/qicore-recorded",
            "valueDateTime": "2013-04-05T09:35:00-04:00"
          }
        ],
        "status": "completed",
        "code": {
          "coding": [
            {
              "system": "http://snomed.info/sct",
              "code": "10745001"
            }
          ]
        },
        "subject": {
          "reference": "Patient/169f4d1c-1c98-445c-96db-7710d85f6815"
        },
        "performedPeriod": {
          "start": "2024-02-01T07:59:00.000Z",
          "end": "2024-02-05T08:15:00.000Z"
        }
      },
      "request": {
        "method": "PUT",
        "url": "Procedure/0b6aaff5-9e56-4efc-bb15-bfef7b0cc2b2"
      }
    },
    {
      "fullUrl": "https://madie.cms.gov/Coverage/d672cb43-8bdd-4934-ad7c-7da9f863e66a",
      "resource": {
        "resourceType": "Coverage",
        "id": "d672cb43-8bdd-4934-ad7c-7da9f863e66a",
        "meta": {
          "profile": [
            "http://hl7.org/fhir/us/qicore/StructureDefinition/qicore-coverage"
          ]
        },
        "status": "active",
        "beneficiary": {
          "reference": "Patient/169f4d1c-1c98-445c-96db-7710d85f6815"
        },
        "payor": [
          {
            "reference": "Organization/656b7ebf-c390-46bd-bc41-93a1d3b6761e"
          }
        ]
      },
      "request": {
        "method": "PUT",
        "url": "Coverage/d672cb43-8bdd-4934-ad7c-7da9f863e66a"
      }
    },
    {
      "fullUrl": "https://madie.cms.gov/Organization/656b7ebf-c390-46bd-bc41-93a1d3b6761e",
      "resource": {
        "resourceType": "Organization",
        "id": "656b7ebf-c390-46bd-bc41-93a1d3b6761e",
        "meta": {
          "profile": [
            "http://hl7.org/fhir/us/qicore/StructureDefinition/qicore-organization"
          ]
        },
        "identifier": [
          {
            "use": "temp",
            "system": "urn:oid:2.16.840.1.113883.4.4",
            "value": "21-3259825"
          }
        ],
        "active": true,
        "type": [
          {
            "coding": [
              {
                "system": "http://terminology.hl7.org/CodeSystem/organization-type",
                "code": "pay",
                "display": "Payer"
              }
            ]
          }
        ],
        "name": "Blue Cross Blue Shield of Texas",
        "telecom": [
          {
            "system": "phone",
            "value": "(+1) 972-766-6900"
          }
        ],
        "address": [
          {
            "use": "billing",
            "type": "postal",
            "line": [
              "P.O. Box 660044"
            ],
            "city": "Dallas",
            "state": "TX",
            "postalCode": "75266-0044",
            "country": "USA"
          }
        ]
      },
      "request": {
        "method": "PUT",
        "url": "Organization/656b7ebf-c390-46bd-bc41-93a1d3b6761e"
      }
    },
    {
      "fullUrl": "https://madie.cms.gov/Practitioner/91e11d06-8aab-48ec-b41d-3195a8ade6a6",
      "resource": {
        "resourceType": "Practitioner",
        "id": "91e11d06-8aab-48ec-b41d-3195a8ade6a6",
        "identifier": [
          {
            "system": "http://hl7.org/fhir/sid/us-npi",
            "value": "123456"
          }
        ],
        "name": [
          {
            "family": "Evil",
            "prefix": [
              "Dr"
            ]
          }
        ]
      },
      "request": {
        "method": "PUT",
        "url": "Practitioner/91e11d06-8aab-48ec-b41d-3195a8ade6a6"
      }
    },
    {
      "fullUrl": "https://madie.cms.gov/MeasureReport/ef514af4-36ee-403f-9a08-a8de1acc027d",
      "resource": {
        "resourceType": "MeasureReport",
        "id": "ef514af4-36ee-403f-9a08-a8de1acc027d",
        "meta": {
          "profile": [
            "http://hl7.org/fhir/us/cqfmeasures/StructureDefinition/test-case-cqfm"
          ]
        },
        "contained": [
          {
            "resourceType": "Parameters",
            "id": "8acac197-bd5b-45b9-a7f1-d034e2bb7757-parameters",
            "parameter": [
              {
                "name": "subject",
                "valueString": "169f4d1c-1c98-445c-96db-7710d85f6815"
              }
            ]
          }
        ],
        "extension": [
          {
            "url": "http://hl7.org/fhir/us/cqfmeasures/StructureDefinition/cqfm-inputParameters",
            "valueReference": {
              "reference": "#8acac197-bd5b-45b9-a7f1-d034e2bb7757-parameters"
            }
          },
          {
            "url": "http://hl7.org/fhir/us/cqfmeasures/StructureDefinition/cqfm-testCaseDescription",
            "valueMarkdown": "Delivery procedure start equals encounter start minus 1 minute. Passes due to \"day of\" logic which was added back in on 6/7/21.\n"
          }
        ],
        "modifierExtension": [
          {
            "url": "http://hl7.org/fhir/us/cqfmeasures/StructureDefinition/cqfm-isTestCase",
            "valueBoolean": true
          }
        ],
        "status": "complete",
        "type": "individual",
        "measure": "https://madie.cms.gov/Measure/SevereObstetricComplicationsFHIR",
        "period": {
          "start": "2024-01-01",
          "end": "2024-12-31"
        },
        "group": [
          {
            "population": [
              {
                "code": {
                  "coding": [
                    {
                      "system": "http://terminology.hl7.org/CodeSystem/measure-population",
                      "code": "initial-population",
                      "display": "Initial Population"
                    }
                  ]
                },
                "count": 1
              },
              {
                "code": {
                  "coding": [
                    {
                      "system": "http://terminology.hl7.org/CodeSystem/measure-population",
                      "code": "denominator",
                      "display": "Denominator"
                    }
                  ]
                },
                "count": 0
              },
              {
                "code": {
                  "coding": [
                    {
                      "system": "http://terminology.hl7.org/CodeSystem/measure-population",
                      "code": "denominator-exclusion",
                      "display": "Denominator Exclusion"
                    }
                  ]
                },
                "count": 0
              },
              {
                "code": {
                  "coding": [
                    {
                      "system": "http://terminology.hl7.org/CodeSystem/measure-population",
                      "code": "numerator",
                      "display": "Numerator"
                    }
                  ]
                },
                "count": 0
              }
            ]
          }
        ],
        "evaluatedResource": [
          {
            "reference": "Patient/169f4d1c-1c98-445c-96db-7710d85f6815"
          },
          {
            "reference": "Encounter/56a02923-e592-4d45-bb7c-1a5fca859030"
          },
          {
            "reference": "Procedure/0b6aaff5-9e56-4efc-bb15-bfef7b0cc2b2"
          },
          {
            "reference": "Coverage/d672cb43-8bdd-4934-ad7c-7da9f863e66a"
          },
          {
            "reference": "Organization/656b7ebf-c390-46bd-bc41-93a1d3b6761e"
          },
          {
            "reference": "Practitioner/91e11d06-8aab-48ec-b41d-3195a8ade6a6"
          }
        ]
      },
      "request": {
        "method": "PUT",
        "url": "MeasureReport/ef514af4-36ee-403f-9a08-a8de1acc027d"
      }
    }
  ]
}