{
  "resourceType": "Bundle",
  "id": "NUMFail-FlourideAppProcsJan1AfterMP",
  "type": "transaction",
  "entry": [
    {
      "fullUrl": "https://madie.cms.gov/Patient/e71df2a4-9c4f-417f-914f-ebaffe7db934",
      "resource": {
        "resourceType": "Patient",
        "id": "e71df2a4-9c4f-417f-914f-ebaffe7db934",
        "meta": {
          "profile": [
            "http://hl7.org/fhir/us/qicore/StructureDefinition/qicore-patient"
          ]
        },
        "extension": [
          {
            "url": "http://hl7.org/fhir/us/core/StructureDefinition/us-core-race",
            "extension": [
              {
                "url": "ombCategory",
                "valueCoding": {
                  "system": "urn:oid:2.16.840.1.113883.6.238",
                  "code": "2028-9",
                  "display": "Asian"
                }
              },
              {
                "url": "text",
                "valueString": "Asian"
              }
            ]
          },
          {
            "url": "http://hl7.org/fhir/us/core/StructureDefinition/us-core-ethnicity",
            "extension": [
              {
                "url": "ombCategory",
                "valueCoding": {
                  "system": "urn:oid:2.16.840.1.113883.6.238",
                  "code": "2135-2",
                  "display": "Hispanic or Latino"
                }
              },
              {
                "url": "text",
                "valueString": "Hispanic or Latino"
              }
            ]
          }
        ],
        "identifier": [
          {
            "system": "http://hospital.smarthealthit.org",
            "value": "999999995"
          }
        ],
        "name": [
          {
            "family": "Bertha",
            "given": [
              "Betty"
            ]
          }
        ],
        "gender": "female",
        "birthDate": "2005-01-01"
      },
      "request": {
        "method": "PUT",
        "url": "Patient/e71df2a4-9c4f-417f-914f-ebaffe7db934"
      }
    },
    {
      "fullUrl": "https://madie.cms.gov/Encounter/ecd265ef-0629-4dd1-9ece-826fe64025d8",
      "resource": {
        "resourceType": "Encounter",
        "id": "ecd265ef-0629-4dd1-9ece-826fe64025d8",
        "meta": {
          "profile": [
            "http://hl7.org/fhir/us/qicore/StructureDefinition/qicore-encounter"
          ]
        },
        "status": "finished",
        "class": {
          "system": "http://terminology.hl7.org/CodeSystem/v3-ActCode",
          "code": "AMB",
          "display": "ambulatory"
        },
        "type": [
          {
            "coding": [
              {
                "system": "http://www.ada.org/cdt",
                "code": "D0120",
                "display": "periodic oral evaluation - established patient"
              }
            ]
          }
        ],
        "subject": {
          "reference": "Patient/e71df2a4-9c4f-417f-914f-ebaffe7db934"
        },
        "period": {
          "start": "2025-01-01T00:00:00.000Z",
          "end": "2025-01-01T01:15:00.000Z"
        }
      },
      "request": {
        "method": "PUT",
        "url": "Encounter/ecd265ef-0629-4dd1-9ece-826fe64025d8"
      }
    },
    {
      "fullUrl": "https://madie.cms.gov/Procedure/6002b5f8-e3ab-414c-b271-9d31aec2b336",
      "resource": {
        "resourceType": "Procedure",
        "id": "6002b5f8-e3ab-414c-b271-9d31aec2b336",
        "meta": {
          "profile": [
            "http://hl7.org/fhir/us/qicore/StructureDefinition/qicore-procedure"
          ]
        },
        "extension": [
          {
            "url": "http://hl7.org/fhir/us/qicore/StructureDefinition/qicore-recorded",
            "valueDateTime": "2026-01-01T00:00:00.000Z"
          }
        ],
        "status": "completed",
        "code": {
          "coding": [
            {
              "system": "http://snomed.info/sct",
              "code": "313042009",
              "display": "Application of dental fluoride varnish (procedure)"
            }
          ]
        },
        "subject": {
          "reference": "Patient/e71df2a4-9c4f-417f-914f-ebaffe7db934"
        },
        "performedPeriod": {
          "start": "2026-01-01T00:00:00.000Z",
          "end": "2026-01-01T01:00:00.000Z"
        }
      },
      "request": {
        "method": "PUT",
        "url": "Procedure/6002b5f8-e3ab-414c-b271-9d31aec2b336"
      }
    },
    {
      "fullUrl": "https://madie.cms.gov/Procedure/6002b5f8-e3ab-414c-b271-9d31aec2b336.1",
      "resource": {
        "resourceType": "Procedure",
        "id": "6002b5f8-e3ab-414c-b271-9d31aec2b336.1",
        "meta": {
          "profile": [
            "http://hl7.org/fhir/us/qicore/StructureDefinition/qicore-procedure"
          ]
        },
        "extension": [
          {
            "url": "http://hl7.org/fhir/us/qicore/StructureDefinition/qicore-recorded",
            "valueDateTime": "2026-01-01T01:00:00.000Z"
          }
        ],
        "status": "completed",
        "code": {
          "coding": [
            {
              "system": "http://snomed.info/sct",
              "code": "313042009",
              "display": "Application of dental fluoride varnish (procedure)"
            }
          ]
        },
        "subject": {
          "reference": "Patient/e71df2a4-9c4f-417f-914f-ebaffe7db934"
        },
        "performedPeriod": {
          "start": "2026-01-01T00:00:00.000Z",
          "end": "2026-01-01T00:00:00.000Z"
        }
      },
      "request": {
        "method": "PUT",
        "url": "Procedure/6002b5f8-e3ab-414c-b271-9d31aec2b336.1"
      }
    },
    {
      "fullUrl": "https://madie.cms.gov/MeasureReport/05b959bb-2dbe-4a7b-93ea-4867b88717ca",
      "resource": {
        "resourceType": "MeasureReport",
        "id": "05b959bb-2dbe-4a7b-93ea-4867b88717ca",
        "meta": {
          "profile": [
            "http://hl7.org/fhir/us/cqfmeasures/StructureDefinition/test-case-cqfm"
          ]
        },
        "contained": [
          {
            "resourceType": "Parameters",
            "id": "df75d007-d183-4b6b-b2e5-f1a61c53c58e-parameters",
            "parameter": [
              {
                "name": "subject",
                "valueString": "e71df2a4-9c4f-417f-914f-ebaffe7db934"
              }
            ]
          }
        ],
        "extension": [
          {
            "url": "http://hl7.org/fhir/us/cqfmeasures/StructureDefinition/cqfm-inputParameters",
            "valueReference": {
              "reference": "#df75d007-d183-4b6b-b2e5-f1a61c53c58e-parameters"
            }
          },
          {
            "url": "http://hl7.org/fhir/us/cqfmeasures/StructureDefinition/cqfm-testCaseDescription",
            "valueMarkdown": "Patient 20yo w/ an Oral Evaluation Encounter 1/1 of the MP & 2 Flouride Application Procedures that end on 12/31 before the MP."
          }
        ],
        "modifierExtension": [
          {
            "url": "http://hl7.org/fhir/us/cqfmeasures/StructureDefinition/cqfm-isTestCase",
            "valueBoolean": true
          }
        ],
        "status": "complete",
        "type": "individual",
        "measure": "https://madie.cms.gov/Measure/PrimaryCariesPreventionasOfferedbyDentistsFHIR",
        "period": {
          "start": "2025-01-01",
          "end": "2025-12-31"
        },
        "group": [
          {
            "population": [
              {
                "code": {
                  "coding": [
                    {
                      "system": "http://terminology.hl7.org/CodeSystem/measure-population",
                      "code": "initial-population",
                      "display": "Initial Population"
                    }
                  ]
                },
                "count": 1
              },
              {
                "code": {
                  "coding": [
                    {
                      "system": "http://terminology.hl7.org/CodeSystem/measure-population",
                      "code": "denominator",
                      "display": "Denominator"
                    }
                  ]
                },
                "count": 1
              },
              {
                "code": {
                  "coding": [
                    {
                      "system": "http://terminology.hl7.org/CodeSystem/measure-population",
                      "code": "denominator-exclusion",
                      "display": "Denominator Exclusion"
                    }
                  ]
                },
                "count": 0
              },
              {
                "code": {
                  "coding": [
                    {
                      "system": "http://terminology.hl7.org/CodeSystem/measure-population",
                      "code": "numerator",
                      "display": "Numerator"
                    }
                  ]
                },
                "count": 0
              }
            ]
          }
        ],
        "evaluatedResource": [
          {
            "reference": "Patient/e71df2a4-9c4f-417f-914f-ebaffe7db934"
          },
          {
            "reference": "Encounter/ecd265ef-0629-4dd1-9ece-826fe64025d8"
          },
          {
            "reference": "Procedure/6002b5f8-e3ab-414c-b271-9d31aec2b336"
          },
          {
            "reference": "Procedure/6002b5f8-e3ab-414c-b271-9d31aec2b336.1"
          }
        ]
      },
      "request": {
        "method": "PUT",
        "url": "MeasureReport/05b959bb-2dbe-4a7b-93ea-4867b88717ca"
      }
    }
  ]
}