{
  "resourceType": "Bundle",
  "id": "363b28a9-e77d-4fee-aaaf-73ebb35bc57c",
  "type": "transaction",
  "entry": [
    {
      "fullUrl": "https://madie.cms.gov/Patient/befc12a0-3573-4003-b68d-ccc5bba50dfa",
      "resource": {
        "resourceType": "Patient",
        "id": "befc12a0-3573-4003-b68d-ccc5bba50dfa",
        "meta": {
          "profile": [
            "http://hl7.org/fhir/us/qicore/StructureDefinition/qicore-patient"
          ]
        },
        "extension": [
          {
            "url": "http://hl7.org/fhir/us/core/StructureDefinition/us-core-race",
            "extension": [
              {
                "url": "ombCategory",
                "valueCoding": {
                  "system": "urn:oid:2.16.840.1.113883.6.238",
                  "code": "2106-3",
                  "display": "White"
                }
              },
              {
                "url": "text",
                "valueString": "White"
              }
            ]
          },
          {
            "url": "http://hl7.org/fhir/us/core/StructureDefinition/us-core-ethnicity",
            "extension": [
              {
                "url": "ombCategory",
                "valueCoding": {
                  "system": "urn:oid:2.16.840.1.113883.6.238",
                  "code": "2135-2",
                  "display": "Hispanic or Latino"
                }
              },
              {
                "url": "text",
                "valueString": "Hispanic or Latino"
              }
            ]
          }
        ],
        "identifier": [
          {
            "system": "http://hospital.smarthealthit.org",
            "value": "999999999"
          }
        ],
        "name": [
          {
            "family": "Example",
            "given": [
              "Patient"
            ]
          }
        ],
        "gender": "male",
        "birthDate": "1955-01-01"
      },
      "request": {
        "method": "PUT",
        "url": "Patient/befc12a0-3573-4003-b68d-ccc5bba50dfa"
      }
    },
    {
      "fullUrl": "https://madie.cms.gov/Encounter/6be5172a-ef0f-45ba-93dc-e529be4651b5",
      "resource": {
        "resourceType": "Encounter",
        "id": "6be5172a-ef0f-45ba-93dc-e529be4651b5",
        "meta": {
          "profile": [
            "http://hl7.org/fhir/us/qicore/StructureDefinition/qicore-encounter"
          ]
        },
        "status": "finished",
        "class": {
          "system": "http://terminology.hl7.org/CodeSystem/v3-ActCode",
          "code": "IMP",
          "display": "inpatient encounter"
        },
        "type": [
          {
            "coding": [
              {
                "system": "http://snomed.info/sct",
                "code": "183452005"
              }
            ]
          }
        ],
        "subject": {
          "reference": "Patient/befc12a0-3573-4003-b68d-ccc5bba50dfa"
        },
        "period": {
          "start": "2025-04-07T08:00:00.000Z",
          "end": "2025-04-11T08:15:00.000Z"
        }
      },
      "request": {
        "method": "PUT",
        "url": "Encounter/6be5172a-ef0f-45ba-93dc-e529be4651b5"
      }
    },
    {
      "fullUrl": "https://madie.cms.gov/Observation/a9cc4300-3eef-4af4-9b86-1e915ad842f5",
      "resource": {
        "resourceType": "Observation",
        "id": "a9cc4300-3eef-4af4-9b86-1e915ad842f5",
        "meta": {
          "profile": [
            "http://hl7.org/fhir/us/qicore/StructureDefinition/qicore-observation"
          ]
        },
        "status": "final",
        "category": [
          {
            "coding": [
              {
                "system": "http://terminology.hl7.org/CodeSystem/observation-category",
                "code": "laboratory",
                "display": "Laboratory"
              }
            ]
          }
        ],
        "code": {
          "coding": [
            {
              "system": "http://loinc.org",
              "version": "2.72",
              "code": "1556-0",
              "display": "Fasting glucose [Mass/volume] in Capillary blood",
              "userSelected": true
            }
          ]
        },
        "subject": {
          "reference": "Patient/befc12a0-3573-4003-b68d-ccc5bba50dfa"
        },
        "effectiveDateTime": "2025-04-07T08:00:00.000+00:00",
        "valueQuantity": {
          "value": 1001,
          "unit": "mg/dL"
        }
      },
      "request": {
        "method": "PUT",
        "url": "Observation/a9cc4300-3eef-4af4-9b86-1e915ad842f5"
      }
    },
    {
      "fullUrl": "https://madie.cms.gov/MeasureReport/3060d3f3-1c9a-4e0e-8b7c-963918083a9e",
      "resource": {
        "resourceType": "MeasureReport",
        "id": "3060d3f3-1c9a-4e0e-8b7c-963918083a9e",
        "meta": {
          "profile": [
            "http://hl7.org/fhir/us/cqfmeasures/StructureDefinition/test-case-cqfm"
          ]
        },
        "contained": [
          {
            "resourceType": "Parameters",
            "id": "1c441823-b26d-4709-9736-30840ae52444-parameters",
            "parameter": [
              {
                "name": "subject",
                "valueString": "befc12a0-3573-4003-b68d-ccc5bba50dfa"
              }
            ]
          }
        ],
        "extension": [
          {
            "url": "http://hl7.org/fhir/us/cqfmeasures/StructureDefinition/cqfm-inputParameters",
            "valueReference": {
              "reference": "#1c441823-b26d-4709-9736-30840ae52444-parameters"
            }
          },
          {
            "url": "http://hl7.org/fhir/us/cqfmeasures/StructureDefinition/cqfm-testCaseDescription",
            "valueMarkdown": "IP encounter where glucose level >1000 mg/dL during interval (1 hour prior to admission to 6 hours after admission). Meets exclusion."
          }
        ],
        "modifierExtension": [
          {
            "url": "http://hl7.org/fhir/us/cqfmeasures/StructureDefinition/cqfm-isTestCase",
            "valueBoolean": true
          }
        ],
        "status": "complete",
        "type": "individual",
        "measure": "https://madie.cms.gov/Measure/HospitalHarmHyperglycemiainHospitalizedPatientsFHIR",
        "period": {
          "start": "2025-01-01",
          "end": "2025-12-31"
        },
        "group": [
          {
            "population": [
              {
                "code": {
                  "coding": [
                    {
                      "system": "http://terminology.hl7.org/CodeSystem/measure-population",
                      "code": "initial-population",
                      "display": "Initial Population"
                    }
                  ]
                },
                "count": 1
              },
              {
                "code": {
                  "coding": [
                    {
                      "system": "http://terminology.hl7.org/CodeSystem/measure-population",
                      "code": "denominator",
                      "display": "Denominator"
                    }
                  ]
                },
                "count": 1
              },
              {
                "code": {
                  "coding": [
                    {
                      "system": "http://terminology.hl7.org/CodeSystem/measure-population",
                      "code": "denominator-exclusion",
                      "display": "Denominator Exclusion"
                    }
                  ]
                },
                "count": 1
              },
              {
                "code": {
                  "coding": [
                    {
                      "system": "http://terminology.hl7.org/CodeSystem/measure-population",
                      "code": "numerator",
                      "display": "Numerator"
                    }
                  ]
                },
                "count": 0
              }
            ]
          }
        ],
        "evaluatedResource": [
          {
            "reference": "Patient/befc12a0-3573-4003-b68d-ccc5bba50dfa"
          },
          {
            "reference": "Encounter/6be5172a-ef0f-45ba-93dc-e529be4651b5"
          },
          {
            "reference": "Observation/a9cc4300-3eef-4af4-9b86-1e915ad842f5"
          }
        ]
      },
      "request": {
        "method": "PUT",
        "url": "MeasureReport/3060d3f3-1c9a-4e0e-8b7c-963918083a9e"
      }
    }
  ]
}