{
  "resourceType": "Bundle",
  "id": "NoscreRefAsseModNodxCp2",
  "type": "transaction",
  "entry": [
    {
      "fullUrl": "https://madie.cms.gov/Patient/ad21f1e6-dfca-4265-875d-33b0435009e2",
      "resource": {
        "resourceType": "Patient",
        "id": "ad21f1e6-dfca-4265-875d-33b0435009e2",
        "meta": {
          "profile": [
            "http://hl7.org/fhir/us/qicore/StructureDefinition/qicore-patient"
          ]
        },
        "text": {
          "status": "generated",
          "div": "<div xmlns=\"http://www.w3.org/1999/xhtml\"><div class=\"hapiHeaderText\">NoscreRefAsseModNodxCp2, , <b> </b></div><table class=\"hapiPropertyTable\"><tbody><tr><td>Identifier</td><td>NoscreRefAsseModNodxCp2</td></tr><tr><td>Date of birth</td><td><span>14 May 1950</span></td></tr></tbody></table></div>"
        },
        "extension": [
          {
            "url": "http://hl7.org/fhir/us/core/StructureDefinition/us-core-race",
            "extension": [
              {
                "url": "ombCategory",
                "valueCoding": {
                  "system": "urn:oid:2.16.840.1.113883.6.238",
                  "code": "2106-3",
                  "display": "White",
                  "userSelected": true
                }
              },
              {
                "url": "text",
                "valueString": "White"
              }
            ]
          },
          {
            "url": "http://hl7.org/fhir/us/core/StructureDefinition/us-core-ethnicity",
            "extension": [
              {
                "url": "ombCategory",
                "valueCoding": {
                  "system": "urn:oid:2.16.840.1.113883.6.238",
                  "code": "2186-5",
                  "display": "Not Hispanic or Latino",
                  "userSelected": true
                }
              },
              {
                "url": "text",
                "valueString": "Not Hispanic or Latino"
              }
            ]
          }
        ],
        "identifier": [
          {
            "type": {
              "coding": [
                {
                  "system": "http://terminology.hl7.org/CodeSystem/v2-0203",
                  "code": "MR"
                }
              ]
            },
            "system": "https://madie.cms.gov/",
            "value": "NoscreRefAsseModNodxCp2"
          }
        ],
        "active": true,
        "name": [
          {
            "use": "usual",
            "text": "NoscreRefAsseModNodxCp2",
            "family": "DENOMPass4",
            "given": [
              "NoscreRefAsseModNodxCp2DENOMPass4"
            ]
          }
        ],
        "gender": "male",
        "birthDate": "1950-05-14",
        "address": [
          {
            "text": "NoscreRefAsseModNodxCp2, Screened Not at risk Assessed Severely Malnourished Diagnosed Care Plan, ID=NoscreRefAsseModNodxCp2, DOB: 14 May 1950"
          }
        ]
      },
      "request": {
        "method": "PUT",
        "url": "Patient/ad21f1e6-dfca-4265-875d-33b0435009e2"
      }
    },
    {
      "fullUrl": "https://madie.cms.gov/Encounter/5ff2ad2c-f18c-4527-84ea-3509720cc062",
      "resource": {
        "resourceType": "Encounter",
        "id": "5ff2ad2c-f18c-4527-84ea-3509720cc062",
        "meta": {
          "profile": [
            "http://hl7.org/fhir/us/qicore/StructureDefinition/qicore-encounter"
          ]
        },
        "status": "finished",
        "class": {
          "system": "http://terminology.hl7.org/CodeSystem/v3-ActCode",
          "code": "IMP",
          "display": "inpatient encounter"
        },
        "type": [
          {
            "coding": [
              {
                "system": "http://snomed.info/sct",
                "code": "183452005"
              }
            ]
          }
        ],
        "subject": {
          "reference": "Patient/ad21f1e6-dfca-4265-875d-33b0435009e2"
        },
        "period": {
          "start": "2026-02-01T08:00:00.000Z",
          "end": "2026-02-07T08:15:00.000Z"
        }
      },
      "request": {
        "method": "PUT",
        "url": "Encounter/5ff2ad2c-f18c-4527-84ea-3509720cc062"
      }
    },
    {
      "fullUrl": "https://madie.cms.gov/Observation/232dfb02-e299-486f-af21-019fb243be6c",
      "resource": {
        "resourceType": "Observation",
        "id": "232dfb02-e299-486f-af21-019fb243be6c",
        "meta": {
          "profile": [
            "http://hl7.org/fhir/us/qicore/StructureDefinition/qicore-observation"
          ]
        },
        "status": "final",
        "category": [
          {
            "coding": [
              {
                "system": "http://terminology.hl7.org/CodeSystem/observation-category",
                "code": "survey",
                "display": "Survey"
              }
            ]
          }
        ],
        "code": {
          "coding": [
            {
              "system": "http://loinc.org",
              "code": "75303-8",
              "display": "Nutrition assessment narrative",
              "userSelected": true
            }
          ]
        },
        "subject": {
          "reference": "Patient/ad21f1e6-dfca-4265-875d-33b0435009e2"
        },
        "effectiveDateTime": "2026-02-01T10:00:00.000+00:00",
        "valueCodeableConcept": {
          "coding": [
            {
              "system": "http://snomed.info/sct",
              "code": "102636009",
              "display": "Chronic nutritional deficiency (finding)",
              "userSelected": true
            }
          ]
        }
      },
      "request": {
        "method": "PUT",
        "url": "Observation/232dfb02-e299-486f-af21-019fb243be6c"
      }
    },
    {
      "fullUrl": "https://madie.cms.gov/Procedure/de6f5e81-bda5-400d-be7c-668106dc09af",
      "resource": {
        "resourceType": "Procedure",
        "id": "de6f5e81-bda5-400d-be7c-668106dc09af",
        "meta": {
          "profile": [
            "http://hl7.org/fhir/us/qicore/StructureDefinition/qicore-procedure"
          ]
        },
        "extension": [
          {
            "url": "http://hl7.org/fhir/us/qicore/StructureDefinition/qicore-recorded",
            "valueDateTime": "2025-02-01T11:30:00.000Z"
          }
        ],
        "status": "completed",
        "code": {
          "coding": [
            {
              "system": "http://snomed.info/sct",
              "code": "306165000",
              "display": "Referral to hospital-based dietetics service (procedure)"
            }
          ],
          "text": "Referral to hospital-based dietetics service(procedure)"
        },
        "subject": {
          "reference": "Patient/ad21f1e6-dfca-4265-875d-33b0435009e2"
        },
        "encounter": {
          "reference": "Encounter/NoscreRefAsseModNodxCp2DENOMPass4"
        },
        "performedPeriod": {
          "start": "2026-02-01T11:30:00.000Z",
          "end": "2026-02-07T08:15:00.000Z"
        }
      },
      "request": {
        "method": "PUT",
        "url": "Procedure/de6f5e81-bda5-400d-be7c-668106dc09af"
      }
    },
    {
      "fullUrl": "https://madie.cms.gov/Procedure/6a9a2954-1269-4431-96e3-9e9648360858",
      "resource": {
        "resourceType": "Procedure",
        "id": "6a9a2954-1269-4431-96e3-9e9648360858",
        "meta": {
          "profile": [
            "http://hl7.org/fhir/us/qicore/StructureDefinition/qicore-procedure"
          ]
        },
        "extension": [
          {
            "url": "http://hl7.org/fhir/us/qicore/StructureDefinition/qicore-recorded",
            "valueDateTime": "2025-02-02T11:30:00.000Z"
          }
        ],
        "status": "completed",
        "code": {
          "coding": [
            {
              "system": "http://snomed.info/sct",
              "code": "1279742004",
              "display": "Development of nutrition care plan (procedure)"
            }
          ],
          "text": "Development of nutrition care plan (procedure)"
        },
        "subject": {
          "reference": "Patient/ad21f1e6-dfca-4265-875d-33b0435009e2"
        },
        "encounter": {
          "reference": "Encounter/NoscreRefAsseModNodxCp2DENOMPass4"
        },
        "performedPeriod": {
          "start": "2026-02-01T11:30:00.000Z",
          "end": "2026-02-07T08:15:00.000Z"
        }
      },
      "request": {
        "method": "PUT",
        "url": "Procedure/6a9a2954-1269-4431-96e3-9e9648360858"
      }
    },
    {
      "fullUrl": "https://madie.cms.gov/Coverage/2b96d3d5-9398-44c1-8ab6-2ecfd7c602e0",
      "resource": {
        "resourceType": "Coverage",
        "id": "2b96d3d5-9398-44c1-8ab6-2ecfd7c602e0",
        "meta": {
          "profile": [
            "http://hl7.org/fhir/us/qicore/StructureDefinition/qicore-coverage"
          ]
        },
        "status": "active",
        "type": {
          "coding": [
            {
              "system": "https://nahdo.org/sopt",
              "version": "9.2",
              "code": "11",
              "display": "Medicare Managed Care (Includes Medicare Advantage Plans)"
            }
          ]
        },
        "beneficiary": {
          "reference": "Patient/ad21f1e6-dfca-4265-875d-33b0435009e2"
        },
        "period": {
          "start": "2024-10-01T00:00:00+00:00"
        },
        "payor": [
          {
            "reference": "Organization/48983136-f698-4f97-b9ff-09cce954db00"
          }
        ]
      },
      "request": {
        "method": "PUT",
        "url": "Coverage/2b96d3d5-9398-44c1-8ab6-2ecfd7c602e0"
      }
    },
    {
      "fullUrl": "https://madie.cms.gov/Organization/48983136-f698-4f97-b9ff-09cce954db00",
      "resource": {
        "resourceType": "Organization",
        "id": "48983136-f698-4f97-b9ff-09cce954db00",
        "meta": {
          "profile": [
            "http://hl7.org/fhir/us/qicore/StructureDefinition/qicore-organization"
          ]
        },
        "identifier": [
          {
            "use": "temp",
            "system": "urn:oid:2.16.840.1.113883.4.4",
            "value": "21-3259825"
          }
        ],
        "active": true,
        "type": [
          {
            "coding": [
              {
                "system": "http://terminology.hl7.org/CodeSystem/organization-type",
                "code": "pay",
                "display": "Payer"
              }
            ]
          }
        ],
        "name": "Blue Cross Blue Shield of Texas",
        "telecom": [
          {
            "system": "phone",
            "value": "(+1) 972-766-6900"
          }
        ],
        "address": [
          {
            "use": "billing",
            "type": "postal",
            "line": [
              "P.O. Box 660044"
            ],
            "city": "Dallas",
            "state": "TX",
            "postalCode": "75266-0044",
            "country": "USA"
          }
        ]
      },
      "request": {
        "method": "PUT",
        "url": "Organization/48983136-f698-4f97-b9ff-09cce954db00"
      }
    },
    {
      "fullUrl": "https://madie.cms.gov/MeasureReport/b3ec17a5-4d18-4996-bb34-63121c0efea0",
      "resource": {
        "resourceType": "MeasureReport",
        "id": "b3ec17a5-4d18-4996-bb34-63121c0efea0",
        "meta": {
          "profile": [
            "http://hl7.org/fhir/us/cqfmeasures/StructureDefinition/test-case-cqfm"
          ]
        },
        "contained": [
          {
            "resourceType": "Parameters",
            "id": "37c939cf-f156-486a-ae27-8fd1138887b2-parameters",
            "parameter": [
              {
                "name": "subject",
                "valueString": "ad21f1e6-dfca-4265-875d-33b0435009e2"
              }
            ]
          }
        ],
        "extension": [
          {
            "url": "http://hl7.org/fhir/us/cqfmeasures/StructureDefinition/cqfm-inputParameters",
            "valueReference": {
              "reference": "#37c939cf-f156-486a-ae27-8fd1138887b2-parameters"
            }
          },
          {
            "url": "http://hl7.org/fhir/us/cqfmeasures/StructureDefinition/cqfm-testCaseDescription",
            "valueMarkdown": "Not screened, Referral, Assessed, Moderately Malnourished, No Diagnosis, Nutrition Care Plan"
          }
        ],
        "modifierExtension": [
          {
            "url": "http://hl7.org/fhir/us/cqfmeasures/StructureDefinition/cqfm-isTestCase",
            "valueBoolean": true
          }
        ],
        "status": "complete",
        "type": "individual",
        "measure": "https://madie.cms.gov/Measure/GlobalMalnutritionCompositeFHIR",
        "period": {
          "start": "2026-01-01",
          "end": "2026-12-31"
        },
        "group": [
          {
            "population": [
              {
                "code": {
                  "coding": [
                    {
                      "system": "http://terminology.hl7.org/CodeSystem/measure-population",
                      "code": "initial-population",
                      "display": "Initial Population"
                    }
                  ]
                },
                "count": 1
              },
              {
                "code": {
                  "coding": [
                    {
                      "system": "http://terminology.hl7.org/CodeSystem/measure-population",
                      "code": "measure-population",
                      "display": "Measure Population"
                    }
                  ]
                },
                "count": 1
              },
              {
                "code": {
                  "coding": [
                    {
                      "system": "http://terminology.hl7.org/CodeSystem/measure-population",
                      "code": "measure-population-observation",
                      "display": "Measure Population Observation"
                    }
                  ]
                },
                "count": 1
              }
            ]
          },
          {
            "population": [
              {
                "code": {
                  "coding": [
                    {
                      "system": "http://terminology.hl7.org/CodeSystem/measure-population",
                      "code": "initial-population",
                      "display": "Initial Population"
                    }
                  ]
                },
                "count": 1
              },
              {
                "code": {
                  "coding": [
                    {
                      "system": "http://terminology.hl7.org/CodeSystem/measure-population",
                      "code": "measure-population",
                      "display": "Measure Population"
                    }
                  ]
                },
                "count": 1
              },
              {
                "code": {
                  "coding": [
                    {
                      "system": "http://terminology.hl7.org/CodeSystem/measure-population",
                      "code": "measure-population-observation",
                      "display": "Measure Population Observation"
                    }
                  ]
                },
                "count": 1
              }
            ]
          },
          {
            "population": [
              {
                "code": {
                  "coding": [
                    {
                      "system": "http://terminology.hl7.org/CodeSystem/measure-population",
                      "code": "initial-population",
                      "display": "Initial Population"
                    }
                  ]
                },
                "count": 1
              },
              {
                "code": {
                  "coding": [
                    {
                      "system": "http://terminology.hl7.org/CodeSystem/measure-population",
                      "code": "measure-population",
                      "display": "Measure Population"
                    }
                  ]
                },
                "count": 1
              },
              {
                "code": {
                  "coding": [
                    {
                      "system": "http://terminology.hl7.org/CodeSystem/measure-population",
                      "code": "measure-population-observation",
                      "display": "Measure Population Observation"
                    }
                  ]
                },
                "count": 0
              }
            ]
          },
          {
            "population": [
              {
                "code": {
                  "coding": [
                    {
                      "system": "http://terminology.hl7.org/CodeSystem/measure-population",
                      "code": "initial-population",
                      "display": "Initial Population"
                    }
                  ]
                },
                "count": 1
              },
              {
                "code": {
                  "coding": [
                    {
                      "system": "http://terminology.hl7.org/CodeSystem/measure-population",
                      "code": "measure-population",
                      "display": "Measure Population"
                    }
                  ]
                },
                "count": 1
              },
              {
                "code": {
                  "coding": [
                    {
                      "system": "http://terminology.hl7.org/CodeSystem/measure-population",
                      "code": "measure-population-observation",
                      "display": "Measure Population Observation"
                    }
                  ]
                },
                "count": 1
              }
            ]
          },
          {
            "population": [
              {
                "code": {
                  "coding": [
                    {
                      "system": "http://terminology.hl7.org/CodeSystem/measure-population",
                      "code": "initial-population",
                      "display": "Initial Population"
                    }
                  ]
                },
                "count": 1
              },
              {
                "code": {
                  "coding": [
                    {
                      "system": "http://terminology.hl7.org/CodeSystem/measure-population",
                      "code": "measure-population",
                      "display": "Measure Population"
                    }
                  ]
                },
                "count": 1
              },
              {
                "code": {
                  "coding": [
                    {
                      "system": "http://terminology.hl7.org/CodeSystem/measure-population",
                      "code": "measure-population-observation",
                      "display": "Measure Population Observation"
                    }
                  ]
                },
                "count": 3
              }
            ]
          },
          {
            "population": [
              {
                "code": {
                  "coding": [
                    {
                      "system": "http://terminology.hl7.org/CodeSystem/measure-population",
                      "code": "initial-population",
                      "display": "Initial Population"
                    }
                  ]
                },
                "count": 1
              },
              {
                "code": {
                  "coding": [
                    {
                      "system": "http://terminology.hl7.org/CodeSystem/measure-population",
                      "code": "measure-population",
                      "display": "Measure Population"
                    }
                  ]
                },
                "count": 1
              },
              {
                "code": {
                  "coding": [
                    {
                      "system": "http://terminology.hl7.org/CodeSystem/measure-population",
                      "code": "measure-population-observation",
                      "display": "Measure Population Observation"
                    }
                  ]
                },
                "count": 75
              }
            ]
          }
        ],
        "evaluatedResource": [
          {
            "reference": "Patient/ad21f1e6-dfca-4265-875d-33b0435009e2"
          },
          {
            "reference": "Encounter/5ff2ad2c-f18c-4527-84ea-3509720cc062"
          },
          {
            "reference": "Observation/232dfb02-e299-486f-af21-019fb243be6c"
          },
          {
            "reference": "Procedure/de6f5e81-bda5-400d-be7c-668106dc09af"
          },
          {
            "reference": "Procedure/6a9a2954-1269-4431-96e3-9e9648360858"
          },
          {
            "reference": "Coverage/2b96d3d5-9398-44c1-8ab6-2ecfd7c602e0"
          },
          {
            "reference": "Organization/48983136-f698-4f97-b9ff-09cce954db00"
          }
        ]
      },
      "request": {
        "method": "PUT",
        "url": "MeasureReport/b3ec17a5-4d18-4996-bb34-63121c0efea0"
      }
    }
  ]
}