{"resourceType":"Bundle","id":"tests-7c59efb5-56ab-4a25-af83-bd81daeee026-bundle","type":"transaction","entry":[{"fullUrl":"https://madie.cms.gov/Patient/7c59efb5-56ab-4a25-af83-bd81daeee026","resource":{"resourceType":"Patient","id":"7c59efb5-56ab-4a25-af83-bd81daeee026","meta":{"profile":["http://hl7.org/fhir/us/qicore/StructureDefinition/qicore-patient"]},"extension":[{"url":"http://hl7.org/fhir/us/core/StructureDefinition/us-core-race","extension":[{"url":"ombCategory","valueCoding":{"system":"urn:oid:2.16.840.1.113883.6.238","code":"2028-9","display":"Asian"}},{"url":"text","valueString":"Asian"}]},{"url":"http://hl7.org/fhir/us/core/StructureDefinition/us-core-ethnicity","extension":[{"url":"ombCategory","valueCoding":{"system":"urn:oid:2.16.840.1.113883.6.238","code":"2135-2","display":"Hispanic or Latino"}},{"url":"text","valueString":"Hispanic or Latino"}]}],"identifier":[{"system":"http://hospital.smarthealthit.org","value":"999999995"}],"name":[{"family":"DENEXPass","given":["FrailtyObsDuringMP"]}],"gender":"female","birthDate":"1958-12-31"},"request":{"method":"PUT","url":"Patient/7c59efb5-56ab-4a25-af83-bd81daeee026"}},{"fullUrl":"https://madie.cms.gov/Encounter/Encounter-1","resource":{"resourceType":"Encounter","id":"62b97a43-2ba8-4d8b-982e-ffb2b79e2300","meta":{"profile":["http://hl7.org/fhir/us/qicore/StructureDefinition/qicore-encounter"]},"status":"finished","class":{"system":"http://terminology.hl7.org/CodeSystem/v3-ActCode","code":"AMB","display":"ambulatory"},"type":[{"coding":[{"system":"http://snomed.info/sct","code":"3391000175108","display":"Office visit for pediatric care and assessment (procedure)"}]}],"subject":{"reference":"Patient/7c59efb5-56ab-4a25-af83-bd81daeee026"},"period":{"start":"2025-01-01T00:00:00.000Z","end":"2025-01-01T01:00:00.000Z"}},"request":{"method":"PUT","url":"Encounter/62b97a43-2ba8-4d8b-982e-ffb2b79e2300"}},{"fullUrl":"https://madie.cms.gov/Condition/Condition-1","resource":{"resourceType":"Condition","id":"a2b0213c-848e-4045-a840-d975e1905ba0","meta":{"profile":["http://hl7.org/fhir/us/qicore/StructureDefinition/qicore-condition"]},"clinicalStatus":{"coding":[{"system":"http://terminology.hl7.org/CodeSystem/condition-clinical","code":"active"}]},"category":[{"coding":[{"system":"http://terminology.hl7.org/CodeSystem/condition-category","code":"problem-list-item","display":"Problem List Item"}]}],"code":{"coding":[{"system":"http://snomed.info/sct","code":"371125006","display":"Labile essential hypertension (disorder)"}]},"subject":{"reference":"Patient/7c59efb5-56ab-4a25-af83-bd81daeee026"},"onsetDateTime":"2025-06-30T23:59:59.000Z"},"request":{"method":"PUT","url":"Condition/a2b0213c-848e-4045-a840-d975e1905ba0"}},{"fullUrl":"https://madie.cms.gov/MedicationRequest/MedicationRequest-1","resource":{"resourceType":"MedicationRequest","id":"7a8c5f44-1c51-4f3a-8351-9742829abd24","meta":{"profile":["http://hl7.org/fhir/us/qicore/StructureDefinition/qicore-medicationrequest"]},"status":"active","intent":"order","doNotPerform":false,"medicationCodeableConcept":{"coding":[{"system":"http://www.nlm.nih.gov/research/umls/rxnorm","code":"312836","display":"rivastigmine 6 MG Oral Capsule"}]},"subject":{"reference":"Patient/7c59efb5-56ab-4a25-af83-bd81daeee026"},"authoredOn":"2025-01-01T00:00:00.000Z","requester":{"reference":"Practitioner/example"},"dispenseRequest":{"expectedSupplyDuration":{"value":90,"system":"http://unitsofmeasure.org","code":"days"}}},"request":{"method":"PUT","url":"MedicationRequest/7a8c5f44-1c51-4f3a-8351-9742829abd24"}},{"fullUrl":"https://madie.cms.gov/Observation/Observation-1","resource":{"resourceType":"Observation","id":"3b4789da-a7cd-47bb-97b4-aff504c44451","meta":{"profile":["http://hl7.org/fhir/us/qicore/StructureDefinition/qicore-observation"]},"status":"final","category":[{"coding":[{"system":"http://terminology.hl7.org/CodeSystem/observation-category","code":"survey"}]}],"code":{"coding":[{"system":"http://loinc.org","code":"98181-1","display":"Medical equipment used"}]},"subject":{"reference":"Patient/7c59efb5-56ab-4a25-af83-bd81daeee026"},"effectivePeriod":{"start":"2025-01-01T00:00:00.000Z","end":"2025-01-01T01:00:00.000Z"},"valueCodeableConcept":{"coding":[{"system":"http://snomed.info/sct","code":"262177002","display":"Static oxygen cylinder (physical object)"}]}},"request":{"method":"PUT","url":"Observation/3b4789da-a7cd-47bb-97b4-aff504c44451"}},{"fullUrl":"https://madie.cms.gov/MeasureReport/fe279b6d-b1a0-4cf8-8332-a5b0679f4fbe","resource":{"resourceType":"MeasureReport","id":"fe279b6d-b1a0-4cf8-8332-a5b0679f4fbe","meta":{"profile":["http://hl7.org/fhir/us/cqfmeasures/StructureDefinition/test-case-cqfm"]},"contained":[{"resourceType":"Parameters","id":"0d8b3457-a5a2-4a35-8f96-04620743769f-parameters","parameter":[{"name":"subject","valueString":"7c59efb5-56ab-4a25-af83-bd81daeee026"}]}],"extension":[{"url":"http://hl7.org/fhir/us/cqfmeasures/StructureDefinition/cqfm-inputParameters","valueReference":{"reference":"#0d8b3457-a5a2-4a35-8f96-04620743769f-parameters"}},{"url":"http://hl7.org/fhir/us/cqfmeasures/StructureDefinition/cqfm-testCaseDescription","valueMarkdown":"Frailty observation during MP"}],"modifierExtension":[{"url":"http://hl7.org/fhir/us/cqfmeasures/StructureDefinition/cqfm-isTestCase","valueBoolean":true}],"status":"complete","type":"individual","measure":"https://madie.cms.gov/Measure/ControllingHighBloodPressureFHIR","period":{"start":"2025-01-01","end":"2025-12-31"},"group":[{"population":[{"code":{"coding":[{"system":"http://terminology.hl7.org/CodeSystem/measure-population","code":"initial-population","display":"Initial Population"}]},"count":1},{"code":{"coding":[{"system":"http://terminology.hl7.org/CodeSystem/measure-population","code":"denominator","display":"Denominator"}]},"count":1},{"code":{"coding":[{"system":"http://terminology.hl7.org/CodeSystem/measure-population","code":"denominator-exclusion","display":"Denominator Exclusion"}]},"count":1},{"code":{"coding":[{"system":"http://terminology.hl7.org/CodeSystem/measure-population","code":"numerator","display":"Numerator"}]},"count":0}]}]},"request":{"method":"PUT","url":"MeasureReport/fe279b6d-b1a0-4cf8-8332-a5b0679f4fbe"}}]}