{"resourceType":"Bundle","id":"tests-b378c30b-ebc2-4378-9a75-8a97711cac81-bundle","type":"transaction","entry":[{"fullUrl":"https://madie.cms.gov/Patient/b378c30b-ebc2-4378-9a75-8a97711cac81","resource":{"resourceType":"Patient","id":"b378c30b-ebc2-4378-9a75-8a97711cac81","meta":{"profile":["http://hl7.org/fhir/us/qicore/StructureDefinition/qicore-patient"]},"extension":[{"url":"http://hl7.org/fhir/us/core/StructureDefinition/us-core-race","extension":[{"url":"ombCategory","valueCoding":{"system":"urn:oid:2.16.840.1.113883.6.238","code":"2028-9","display":"Asian"}},{"url":"text","valueString":"Asian"}]},{"url":"http://hl7.org/fhir/us/core/StructureDefinition/us-core-ethnicity","extension":[{"url":"ombCategory","valueCoding":{"system":"urn:oid:2.16.840.1.113883.6.238","code":"2135-2","display":"Hispanic or Latino"}},{"url":"text","valueString":"Hispanic or Latino"}]}],"identifier":[{"system":"http://hospital.smarthealthit.org","value":"999999995"}],"name":[{"family":"DENEXFail","given":["LastHousingStatusNotNursingHome"]}],"gender":"female","birthDate":"1958-12-31"},"request":{"method":"PUT","url":"Patient/b378c30b-ebc2-4378-9a75-8a97711cac81"}},{"fullUrl":"https://madie.cms.gov/Encounter/Encounter-1","resource":{"resourceType":"Encounter","id":"4cd8bf1c-ee44-409d-97ef-8fe5f8f61370","meta":{"profile":["http://hl7.org/fhir/us/qicore/StructureDefinition/qicore-encounter"]},"status":"finished","class":{"system":"http://terminology.hl7.org/CodeSystem/v3-ActCode","code":"AMB","display":"ambulatory"},"type":[{"coding":[{"system":"http://snomed.info/sct","code":"3391000175108","display":"Office visit for pediatric care and assessment (procedure)"}]}],"subject":{"reference":"Patient/b378c30b-ebc2-4378-9a75-8a97711cac81"},"period":{"start":"2025-01-01T00:00:00.000Z","end":"2025-01-01T01:00:00.000Z"}},"request":{"method":"PUT","url":"Encounter/4cd8bf1c-ee44-409d-97ef-8fe5f8f61370"}},{"fullUrl":"https://madie.cms.gov/Condition/Condition-1","resource":{"resourceType":"Condition","id":"3d050f35-e66b-497e-ac4a-433055ceea33","meta":{"profile":["http://hl7.org/fhir/us/qicore/StructureDefinition/qicore-condition"]},"clinicalStatus":{"coding":[{"system":"http://terminology.hl7.org/CodeSystem/condition-clinical","code":"active"}]},"category":[{"coding":[{"system":"http://terminology.hl7.org/CodeSystem/condition-category","code":"problem-list-item","display":"Problem List Item"}]}],"code":{"coding":[{"system":"http://snomed.info/sct","code":"371125006","display":"Labile essential hypertension (disorder)"}]},"subject":{"reference":"Patient/b378c30b-ebc2-4378-9a75-8a97711cac81"},"onsetDateTime":"2025-06-30T23:59:59.000Z"},"request":{"method":"PUT","url":"Condition/3d050f35-e66b-497e-ac4a-433055ceea33"}},{"fullUrl":"https://madie.cms.gov/Observation/Observation-1","resource":{"resourceType":"Observation","id":"238a2f6f-e801-415a-9624-6f51541e5b66","meta":{"profile":["http://hl7.org/fhir/us/qicore/StructureDefinition/qicore-observation"]},"status":"final","category":[{"coding":[{"system":"http://terminology.hl7.org/CodeSystem/observation-category","code":"survey"}]}],"code":{"coding":[{"system":"http://loinc.org","code":"71802-3","display":"Housing status"}]},"subject":{"reference":"Patient/b378c30b-ebc2-4378-9a75-8a97711cac81"},"effectivePeriod":{"start":"2024-12-31T00:00:00.000Z","end":"2025-01-01T00:00:00.000Z"},"valueCodeableConcept":{"coding":[{"system":"http://snomed.info/sct","code":"160943002","display":"Lives in own home"}]}},"request":{"method":"PUT","url":"Observation/238a2f6f-e801-415a-9624-6f51541e5b66"}},{"fullUrl":"https://madie.cms.gov/MeasureReport/2a0d3e61-f3e8-498c-8b88-7142a3b825a6","resource":{"resourceType":"MeasureReport","id":"2a0d3e61-f3e8-498c-8b88-7142a3b825a6","meta":{"profile":["http://hl7.org/fhir/us/cqfmeasures/StructureDefinition/test-case-cqfm"]},"contained":[{"resourceType":"Parameters","id":"38272144-5826-4502-8906-6f3d9b9d669b-parameters","parameter":[{"name":"subject","valueString":"b378c30b-ebc2-4378-9a75-8a97711cac81"}]}],"extension":[{"url":"http://hl7.org/fhir/us/cqfmeasures/StructureDefinition/cqfm-inputParameters","valueReference":{"reference":"#38272144-5826-4502-8906-6f3d9b9d669b-parameters"}},{"url":"http://hl7.org/fhir/us/cqfmeasures/StructureDefinition/cqfm-testCaseDescription","valueMarkdown":"Last housing status not nursing home"}],"modifierExtension":[{"url":"http://hl7.org/fhir/us/cqfmeasures/StructureDefinition/cqfm-isTestCase","valueBoolean":true}],"status":"complete","type":"individual","measure":"https://madie.cms.gov/Measure/ControllingHighBloodPressureFHIR","period":{"start":"2025-01-01","end":"2025-12-31"},"group":[{"population":[{"code":{"coding":[{"system":"http://terminology.hl7.org/CodeSystem/measure-population","code":"initial-population","display":"Initial Population"}]},"count":1},{"code":{"coding":[{"system":"http://terminology.hl7.org/CodeSystem/measure-population","code":"denominator","display":"Denominator"}]},"count":1},{"code":{"coding":[{"system":"http://terminology.hl7.org/CodeSystem/measure-population","code":"denominator-exclusion","display":"Denominator Exclusion"}]},"count":0},{"code":{"coding":[{"system":"http://terminology.hl7.org/CodeSystem/measure-population","code":"numerator","display":"Numerator"}]},"count":0}]}]},"request":{"method":"PUT","url":"MeasureReport/2a0d3e61-f3e8-498c-8b88-7142a3b825a6"}}]}