{
  "resourceType": "Bundle",
  "id": "6129135002c62a011f2e72bc",
  "type": "transaction",
  "entry": [
    {
      "fullUrl": "https://madie.cms.gov/Patient/d0977088-5604-478c-9df4-af053818eee8",
      "resource": {
        "resourceType": "Patient",
        "id": "d0977088-5604-478c-9df4-af053818eee8",
        "meta": {
          "profile": [
            "http://hl7.org/fhir/us/qicore/StructureDefinition/qicore-patient"
          ]
        },
        "text": {
          "status": "generated",
          "div": "<div xmlns=\"http://www.w3.org/1999/xhtml\"><div class=\"hapiHeaderText\">CMOdurED_ED&gt;1hrObs&lt;1hrBFEnc <b>DENEXFAIL </b></div><table class=\"hapiPropertyTable\"><tbody><tr><td>Identifier</td><td>2006756a27174f92dee13bbc481e8a65c6ccb0b0b47df780aff7bd6f91c33990</td></tr><tr><td>Date of birth</td><td><span>21 August 1994</span></td></tr></tbody></table></div>"
        },
        "extension": [
          {
            "url": "http://hl7.org/fhir/us/core/StructureDefinition/us-core-race",
            "extension": [
              {
                "url": "ombCategory",
                "valueCoding": {
                  "system": "urn:oid:2.16.840.1.113883.6.238",
                  "code": "1002-5",
                  "display": "American Indian or Alaska Native",
                  "userSelected": true
                }
              },
              {
                "url": "text",
                "valueString": "American Indian or Alaska Native"
              }
            ]
          },
          {
            "url": "http://hl7.org/fhir/us/core/StructureDefinition/us-core-ethnicity",
            "extension": [
              {
                "url": "ombCategory",
                "valueCoding": {
                  "system": "urn:oid:2.16.840.1.113883.6.238",
                  "code": "2135-2",
                  "display": "Hispanic or Latino",
                  "userSelected": true
                }
              },
              {
                "url": "text",
                "valueString": "Hispanic or Latino"
              }
            ]
          }
        ],
        "identifier": [
          {
            "type": {
              "coding": [
                {
                  "system": "http://terminology.hl7.org/CodeSystem/v2-0203",
                  "code": "MR"
                }
              ]
            },
            "system": "https://bonnie-fhir.healthit.gov/",
            "value": "6129135002c62a011f2e72bc"
          }
        ],
        "active": true,
        "name": [
          {
            "use": "usual",
            "family": "DENEXFail",
            "given": [
              "CMOdurED_ED>1hrObs<1hrBFEnc"
            ]
          }
        ],
        "gender": "male",
        "birthDate": "1994-08-21"
      },
      "request": {
        "method": "PUT",
        "url": "Patient/d0977088-5604-478c-9df4-af053818eee8"
      }
    },
    {
      "fullUrl": "https://madie.cms.gov/Encounter/a794f4b0-628c-49cb-b30d-e494b1bb5781",
      "resource": {
        "resourceType": "Encounter",
        "id": "a794f4b0-628c-49cb-b30d-e494b1bb5781",
        "meta": {
          "profile": [
            "http://hl7.org/fhir/us/qicore/StructureDefinition/qicore-encounter"
          ]
        },
        "status": "finished",
        "class": {
          "system": "http://terminology.hl7.org/CodeSystem/v3-ActCode",
          "code": "EMER",
          "display": "emergency",
          "userSelected": true
        },
        "type": [
          {
            "coding": [
              {
                "system": "http://snomed.info/sct",
                "code": "4525004"
              }
            ]
          }
        ],
        "subject": {
          "reference": "Patient/d0977088-5604-478c-9df4-af053818eee8"
        },
        "period": {
          "start": "2025-10-10T10:28:00.000+00:00",
          "end": "2025-10-10T10:30:00.000+00:00"
        },
        "length": {
          "value": 0,
          "unit": "days"
        }
      },
      "request": {
        "method": "PUT",
        "url": "Encounter/a794f4b0-628c-49cb-b30d-e494b1bb5781"
      }
    },
    {
      "fullUrl": "https://madie.cms.gov/Encounter/58e67460-7d22-4aac-a6ff-c5bf7e73117b",
      "resource": {
        "resourceType": "Encounter",
        "id": "58e67460-7d22-4aac-a6ff-c5bf7e73117b",
        "meta": {
          "profile": [
            "http://hl7.org/fhir/us/qicore/StructureDefinition/qicore-encounter"
          ]
        },
        "status": "finished",
        "class": {
          "system": "http://terminology.hl7.org/CodeSystem/v3-ActCode",
          "code": "OBSENC",
          "display": "observation encounter",
          "userSelected": true
        },
        "type": [
          {
            "coding": [
              {
                "system": "http://snomed.info/sct",
                "code": "448851000124103"
              }
            ]
          }
        ],
        "subject": {
          "reference": "Patient/d0977088-5604-478c-9df4-af053818eee8"
        },
        "period": {
          "start": "2025-10-10T11:31:00.000+00:00",
          "end": "2025-10-10T11:35:00.000+00:00"
        },
        "length": {
          "value": 0,
          "unit": "days"
        }
      },
      "request": {
        "method": "PUT",
        "url": "Encounter/58e67460-7d22-4aac-a6ff-c5bf7e73117b"
      }
    },
    {
      "fullUrl": "https://madie.cms.gov/Encounter/65238b57-8037-4449-8960-b3d3a7cfa2c1",
      "resource": {
        "resourceType": "Encounter",
        "id": "65238b57-8037-4449-8960-b3d3a7cfa2c1",
        "meta": {
          "profile": [
            "http://hl7.org/fhir/us/qicore/StructureDefinition/qicore-encounter"
          ]
        },
        "status": "finished",
        "class": {
          "system": "http://terminology.hl7.org/CodeSystem/v3-ActCode",
          "code": "IMP",
          "display": "inpatient encounter",
          "userSelected": true
        },
        "type": [
          {
            "coding": [
              {
                "system": "http://snomed.info/sct",
                "code": "32485007"
              }
            ]
          }
        ],
        "subject": {
          "reference": "Patient/d0977088-5604-478c-9df4-af053818eee8"
        },
        "period": {
          "start": "2025-10-10T11:36:00.000+00:00",
          "end": "2025-10-12T11:30:00.000+00:00"
        },
        "length": {
          "value": 2,
          "unit": "days"
        },
        "diagnosis": [
          {
            "condition": {
              "reference": "Condition/a99e3c53-6033-4e95-9ddc-0af5340dce49"
            },
            "use": {
              "coding": [
                {
                  "system": "http://terminology.hl7.org/CodeSystem/diagnosis-role",
                  "code": "billing",
                  "display": "Billing"
                }
              ]
            },
            "rank": 1
          }
        ]
      },
      "request": {
        "method": "PUT",
        "url": "Encounter/65238b57-8037-4449-8960-b3d3a7cfa2c1"
      }
    },
    {
      "fullUrl": "https://madie.cms.gov/ServiceRequest/a849d428-245e-47b5-af79-c6d22480d4d7",
      "resource": {
        "resourceType": "ServiceRequest",
        "id": "a849d428-245e-47b5-af79-c6d22480d4d7",
        "meta": {
          "profile": [
            "http://hl7.org/fhir/us/qicore/StructureDefinition/qicore-servicerequest"
          ]
        },
        "status": "active",
        "intent": "order",
        "code": {
          "coding": [
            {
              "system": "http://snomed.info/sct",
              "code": "133918004"
            }
          ]
        },
        "subject": {
          "reference": "Patient/d0977088-5604-478c-9df4-af053818eee8"
        },
        "authoredOn": "2025-10-10T10:30:00.000+00:00"
      },
      "request": {
        "method": "PUT",
        "url": "ServiceRequest/a849d428-245e-47b5-af79-c6d22480d4d7"
      }
    },
    {
      "fullUrl": "https://madie.cms.gov/Condition/a99e3c53-6033-4e95-9ddc-0af5340dce49",
      "resource": {
        "resourceType": "Condition",
        "id": "a99e3c53-6033-4e95-9ddc-0af5340dce49",
        "meta": {
          "profile": [
            "http://hl7.org/fhir/us/qicore/StructureDefinition/qicore-condition"
          ]
        },
        "clinicalStatus": {
          "coding": [
            {
              "system": "http://terminology.hl7.org/CodeSystem/condition-clinical",
              "code": "active"
            }
          ]
        },
        "verificationStatus": {
          "coding": [
            {
              "system": "http://terminology.hl7.org/CodeSystem/condition-ver-status",
              "code": "confirmed"
            }
          ]
        },
        "category": [
          {
            "coding": [
              {
                "system": "http://terminology.hl7.org/CodeSystem/condition-category",
                "code": "encounter-diagnosis",
                "display": "Encounter Diagnosis"
              }
            ]
          }
        ],
        "code": {
          "coding": [
            {
              "system": "http://snomed.info/sct",
              "version": "2020-09",
              "code": "111297002",
              "display": "Nonparalytic stroke (disorder)",
              "userSelected": true
            }
          ]
        },
        "subject": {
          "reference": "Patient/d0977088-5604-478c-9df4-af053818eee8"
        },
        "recordedDate": "2025-07-14T08:00:00.000+00:00"
      },
      "request": {
        "method": "PUT",
        "url": "Condition/a99e3c53-6033-4e95-9ddc-0af5340dce49"
      }
    },
    {
      "fullUrl": "https://madie.cms.gov/Coverage/c7f2d440-3daa-4290-9f84-67c61ca16da7",
      "resource": {
        "resourceType": "Coverage",
        "id": "c7f2d440-3daa-4290-9f84-67c61ca16da7",
        "meta": {
          "profile": [
            "http://hl7.org/fhir/us/qicore/StructureDefinition/qicore-coverage"
          ]
        },
        "status": "active",
        "beneficiary": {
          "reference": "Patient/d0977088-5604-478c-9df4-af053818eee8"
        },
        "payor": [
          {
            "reference": "Organization/4a6ee12b-e04f-481f-a014-536e2190d9b8"
          }
        ]
      },
      "request": {
        "method": "PUT",
        "url": "Coverage/c7f2d440-3daa-4290-9f84-67c61ca16da7"
      }
    },
    {
      "fullUrl": "https://madie.cms.gov/Organization/4a6ee12b-e04f-481f-a014-536e2190d9b8",
      "resource": {
        "resourceType": "Organization",
        "id": "4a6ee12b-e04f-481f-a014-536e2190d9b8",
        "meta": {
          "profile": [
            "http://hl7.org/fhir/us/qicore/StructureDefinition/qicore-organization"
          ]
        },
        "identifier": [
          {
            "use": "temp",
            "system": "urn:oid:2.16.840.1.113883.4.4",
            "value": "21-3259825"
          }
        ],
        "active": true,
        "type": [
          {
            "coding": [
              {
                "system": "http://terminology.hl7.org/CodeSystem/organization-type",
                "code": "pay",
                "display": "Payer"
              }
            ]
          }
        ],
        "name": "Blue Cross Blue Shield of Texas",
        "telecom": [
          {
            "system": "phone",
            "value": "(+1) 972-766-6900"
          }
        ],
        "address": [
          {
            "use": "billing",
            "type": "postal",
            "line": [
              "P.O. Box 660044"
            ],
            "city": "Dallas",
            "state": "TX",
            "postalCode": "75266-0044",
            "country": "USA"
          }
        ]
      },
      "request": {
        "method": "PUT",
        "url": "Organization/4a6ee12b-e04f-481f-a014-536e2190d9b8"
      }
    },
    {
      "fullUrl": "https://madie.cms.gov/MeasureReport/c95a739b-f602-417d-bc26-d9b3f95d3151",
      "resource": {
        "resourceType": "MeasureReport",
        "id": "c95a739b-f602-417d-bc26-d9b3f95d3151",
        "meta": {
          "profile": [
            "http://hl7.org/fhir/us/cqfmeasures/StructureDefinition/test-case-cqfm"
          ]
        },
        "contained": [
          {
            "resourceType": "Parameters",
            "id": "c2f3e436-24a8-4264-a060-acea5746c3c3-parameters",
            "parameter": [
              {
                "name": "subject",
                "valueString": "d0977088-5604-478c-9df4-af053818eee8"
              }
            ]
          }
        ],
        "extension": [
          {
            "url": "http://hl7.org/fhir/us/cqfmeasures/StructureDefinition/cqfm-inputParameters",
            "valueReference": {
              "reference": "#c2f3e436-24a8-4264-a060-acea5746c3c3-parameters"
            }
          },
          {
            "url": "http://hl7.org/fhir/us/cqfmeasures/StructureDefinition/cqfm-testCaseDescription",
            "valueMarkdown": "Patient receives CMO during ED. ED ends 61 minute before obs. Obs ends 1 min before inpatient encounter start.Testing day of operator with HospitalizationWithObservation function."
          }
        ],
        "modifierExtension": [
          {
            "url": "http://hl7.org/fhir/us/cqfmeasures/StructureDefinition/cqfm-isTestCase",
            "valueBoolean": true
          }
        ],
        "status": "complete",
        "type": "individual",
        "measure": "https://madie.cms.gov/Measure/DischargedonAntithromboticTherapyFHIR",
        "period": {
          "start": "2025-01-01",
          "end": "2025-12-31"
        },
        "group": [
          {
            "population": [
              {
                "code": {
                  "coding": [
                    {
                      "system": "http://terminology.hl7.org/CodeSystem/measure-population",
                      "code": "initial-population",
                      "display": "Initial Population"
                    }
                  ]
                },
                "count": 1
              },
              {
                "code": {
                  "coding": [
                    {
                      "system": "http://terminology.hl7.org/CodeSystem/measure-population",
                      "code": "denominator",
                      "display": "Denominator"
                    }
                  ]
                },
                "count": 1
              },
              {
                "code": {
                  "coding": [
                    {
                      "system": "http://terminology.hl7.org/CodeSystem/measure-population",
                      "code": "denominator-exclusion",
                      "display": "Denominator Exclusion"
                    }
                  ]
                },
                "count": 0
              },
              {
                "code": {
                  "coding": [
                    {
                      "system": "http://terminology.hl7.org/CodeSystem/measure-population",
                      "code": "numerator",
                      "display": "Numerator"
                    }
                  ]
                },
                "count": 0
              },
              {
                "code": {
                  "coding": [
                    {
                      "system": "http://terminology.hl7.org/CodeSystem/measure-population",
                      "code": "denominator-exception",
                      "display": "Denominator Exception"
                    }
                  ]
                },
                "count": 0
              }
            ]
          }
        ],
        "evaluatedResource": [
          {
            "reference": "Patient/d0977088-5604-478c-9df4-af053818eee8"
          },
          {
            "reference": "Encounter/a794f4b0-628c-49cb-b30d-e494b1bb5781"
          },
          {
            "reference": "Encounter/58e67460-7d22-4aac-a6ff-c5bf7e73117b"
          },
          {
            "reference": "Encounter/65238b57-8037-4449-8960-b3d3a7cfa2c1"
          },
          {
            "reference": "ServiceRequest/a849d428-245e-47b5-af79-c6d22480d4d7"
          },
          {
            "reference": "Condition/a99e3c53-6033-4e95-9ddc-0af5340dce49"
          },
          {
            "reference": "Coverage/c7f2d440-3daa-4290-9f84-67c61ca16da7"
          },
          {
            "reference": "Organization/4a6ee12b-e04f-481f-a014-536e2190d9b8"
          }
        ]
      },
      "request": {
        "method": "PUT",
        "url": "MeasureReport/c95a739b-f602-417d-bc26-d9b3f95d3151"
      }
    }
  ]
}