{
  "resourceType": "Bundle",
  "id": "6129131d02c62a011f2e5d35",
  "type": "transaction",
  "entry": [
    {
      "fullUrl": "https://madie.cms.gov/Patient/bf9310f7-a29c-4676-a648-f07fa076f708",
      "resource": {
        "resourceType": "Patient",
        "id": "bf9310f7-a29c-4676-a648-f07fa076f708",
        "meta": {
          "profile": [
            "http://hl7.org/fhir/us/qicore/StructureDefinition/qicore-patient"
          ]
        },
        "text": {
          "status": "generated",
          "div": "<div xmlns=\"http://www.w3.org/1999/xhtml\"><div class=\"hapiHeaderText\">PrincDxIsIschemicStk <b>IPPASS </b></div><table class=\"hapiPropertyTable\"><tbody><tr><td>Identifier</td><td>2c3c10ba2a2d77bc6e8e12b35ac2acc7</td></tr><tr><td>Date of birth</td><td><span>21 August 1994</span></td></tr></tbody></table></div>"
        },
        "extension": [
          {
            "url": "http://hl7.org/fhir/us/core/StructureDefinition/us-core-race",
            "extension": [
              {
                "url": "ombCategory",
                "valueCoding": {
                  "system": "urn:oid:2.16.840.1.113883.6.238",
                  "code": "1002-5",
                  "display": "American Indian or Alaska Native",
                  "userSelected": true
                }
              },
              {
                "url": "text",
                "valueString": "American Indian or Alaska Native"
              }
            ]
          },
          {
            "url": "http://hl7.org/fhir/us/core/StructureDefinition/us-core-ethnicity",
            "extension": [
              {
                "url": "ombCategory",
                "valueCoding": {
                  "system": "urn:oid:2.16.840.1.113883.6.238",
                  "code": "2135-2",
                  "display": "Hispanic or Latino",
                  "userSelected": true
                }
              },
              {
                "url": "text",
                "valueString": "Hispanic or Latino"
              }
            ]
          }
        ],
        "identifier": [
          {
            "type": {
              "coding": [
                {
                  "system": "http://terminology.hl7.org/CodeSystem/v2-0203",
                  "code": "MR"
                }
              ]
            },
            "system": "https://bonnie-fhir.healthit.gov/",
            "value": "6129131d02c62a011f2e5d35"
          }
        ],
        "active": true,
        "name": [
          {
            "use": "usual",
            "family": "IPPass",
            "given": [
              "PrincDxIsIschemicStk"
            ]
          }
        ],
        "gender": "male",
        "birthDate": "2003-08-21"
      },
      "request": {
        "method": "PUT",
        "url": "Patient/bf9310f7-a29c-4676-a648-f07fa076f708"
      }
    },
    {
      "fullUrl": "https://madie.cms.gov/Encounter/7cce6b5a-3411-4916-b28f-4ccd72659860",
      "resource": {
        "resourceType": "Encounter",
        "id": "7cce6b5a-3411-4916-b28f-4ccd72659860",
        "meta": {
          "profile": [
            "http://hl7.org/fhir/us/qicore/StructureDefinition/qicore-encounter"
          ]
        },
        "status": "finished",
        "class": {
          "system": "http://terminology.hl7.org/CodeSystem/v3-ActCode",
          "code": "IMP",
          "display": "inpatient encounter",
          "userSelected": true
        },
        "type": [
          {
            "coding": [
              {
                "system": "http://snomed.info/sct",
                "code": "32485007"
              }
            ]
          }
        ],
        "subject": {
          "reference": "Patient/bf9310f7-a29c-4676-a648-f07fa076f708"
        },
        "period": {
          "start": "2025-08-21T08:00:00.000+00:00",
          "end": "2025-12-19T08:15:00.000+00:00"
        },
        "length": {
          "value": 120,
          "unit": "days"
        },
        "diagnosis": [
          {
            "condition": {
              "reference": "Condition/714041b1-2682-4679-a384-f3ab1b88ad90"
            },
            "use": {
              "coding": [
                {
                  "system": "http://terminology.hl7.org/CodeSystem/diagnosis-role",
                  "code": "billing",
                  "display": "Billing"
                }
              ]
            },
            "rank": 1
          }
        ]
      },
      "request": {
        "method": "PUT",
        "url": "Encounter/7cce6b5a-3411-4916-b28f-4ccd72659860"
      }
    },
    {
      "fullUrl": "https://madie.cms.gov/Condition/714041b1-2682-4679-a384-f3ab1b88ad90",
      "resource": {
        "resourceType": "Condition",
        "id": "714041b1-2682-4679-a384-f3ab1b88ad90",
        "meta": {
          "profile": [
            "http://hl7.org/fhir/us/qicore/StructureDefinition/qicore-condition"
          ]
        },
        "clinicalStatus": {
          "coding": [
            {
              "system": "http://terminology.hl7.org/CodeSystem/condition-clinical",
              "code": "active"
            }
          ]
        },
        "verificationStatus": {
          "coding": [
            {
              "system": "http://terminology.hl7.org/CodeSystem/condition-ver-status",
              "code": "confirmed"
            }
          ]
        },
        "category": [
          {
            "coding": [
              {
                "system": "http://terminology.hl7.org/CodeSystem/condition-category",
                "code": "encounter-diagnosis",
                "display": "Encounter Diagnosis"
              }
            ]
          }
        ],
        "code": {
          "coding": [
            {
              "system": "http://snomed.info/sct",
              "version": "2020-09",
              "code": "111297002",
              "display": "Nonparalytic stroke (disorder)",
              "userSelected": true
            }
          ]
        },
        "subject": {
          "reference": "Patient/bf9310f7-a29c-4676-a648-f07fa076f708"
        },
        "recordedDate": "2025-07-15T08:00:00.000+00:00"
      },
      "request": {
        "method": "PUT",
        "url": "Condition/714041b1-2682-4679-a384-f3ab1b88ad90"
      }
    },
    {
      "fullUrl": "https://madie.cms.gov/Coverage/bdbe90cc-dac0-4788-a19a-74baec88b753",
      "resource": {
        "resourceType": "Coverage",
        "id": "bdbe90cc-dac0-4788-a19a-74baec88b753",
        "meta": {
          "profile": [
            "http://hl7.org/fhir/us/qicore/StructureDefinition/qicore-coverage"
          ]
        },
        "status": "active",
        "beneficiary": {
          "reference": "Patient/bf9310f7-a29c-4676-a648-f07fa076f708"
        },
        "payor": [
          {
            "reference": "Organization/85c73181-3276-4d2c-8af6-d985b987351f"
          }
        ]
      },
      "request": {
        "method": "PUT",
        "url": "Coverage/bdbe90cc-dac0-4788-a19a-74baec88b753"
      }
    },
    {
      "fullUrl": "https://madie.cms.gov/Organization/85c73181-3276-4d2c-8af6-d985b987351f",
      "resource": {
        "resourceType": "Organization",
        "id": "85c73181-3276-4d2c-8af6-d985b987351f",
        "meta": {
          "profile": [
            "http://hl7.org/fhir/us/qicore/StructureDefinition/qicore-organization"
          ]
        },
        "identifier": [
          {
            "use": "temp",
            "system": "urn:oid:2.16.840.1.113883.4.4",
            "value": "21-3259825"
          }
        ],
        "active": true,
        "type": [
          {
            "coding": [
              {
                "system": "http://terminology.hl7.org/CodeSystem/organization-type",
                "code": "pay",
                "display": "Payer"
              }
            ]
          }
        ],
        "name": "Blue Cross Blue Shield of Texas",
        "telecom": [
          {
            "system": "phone",
            "value": "(+1) 972-766-6900"
          }
        ],
        "address": [
          {
            "use": "billing",
            "type": "postal",
            "line": [
              "P.O. Box 660044"
            ],
            "city": "Dallas",
            "state": "TX",
            "postalCode": "75266-0044",
            "country": "USA"
          }
        ]
      },
      "request": {
        "method": "PUT",
        "url": "Organization/85c73181-3276-4d2c-8af6-d985b987351f"
      }
    },
    {
      "fullUrl": "https://madie.cms.gov/MeasureReport/d233e915-cd70-40e1-aace-8b5e82ed7a33",
      "resource": {
        "resourceType": "MeasureReport",
        "id": "d233e915-cd70-40e1-aace-8b5e82ed7a33",
        "meta": {
          "profile": [
            "http://hl7.org/fhir/us/cqfmeasures/StructureDefinition/test-case-cqfm"
          ]
        },
        "contained": [
          {
            "resourceType": "Parameters",
            "id": "e1cf7815-c7fd-4642-bfae-2dfe013cc672-parameters",
            "parameter": [
              {
                "name": "subject",
                "valueString": "bf9310f7-a29c-4676-a648-f07fa076f708"
              }
            ]
          }
        ],
        "extension": [
          {
            "url": "http://hl7.org/fhir/us/cqfmeasures/StructureDefinition/cqfm-inputParameters",
            "valueReference": {
              "reference": "#e1cf7815-c7fd-4642-bfae-2dfe013cc672-parameters"
            }
          },
          {
            "url": "http://hl7.org/fhir/us/cqfmeasures/StructureDefinition/cqfm-testCaseDescription",
            "valueMarkdown": "Patient is 18 with Non-Elective Inpatient Encounter (LOS 120 days) with principal diagnosis of ischemic stroke ends during MP\n"
          }
        ],
        "modifierExtension": [
          {
            "url": "http://hl7.org/fhir/us/cqfmeasures/StructureDefinition/cqfm-isTestCase",
            "valueBoolean": true
          }
        ],
        "status": "complete",
        "type": "individual",
        "measure": "https://madie.cms.gov/Measure/DischargedonAntithromboticTherapyFHIR",
        "period": {
          "start": "2025-01-01",
          "end": "2025-12-31"
        },
        "group": [
          {
            "population": [
              {
                "code": {
                  "coding": [
                    {
                      "system": "http://terminology.hl7.org/CodeSystem/measure-population",
                      "code": "initial-population",
                      "display": "Initial Population"
                    }
                  ]
                },
                "count": 1
              },
              {
                "code": {
                  "coding": [
                    {
                      "system": "http://terminology.hl7.org/CodeSystem/measure-population",
                      "code": "denominator",
                      "display": "Denominator"
                    }
                  ]
                },
                "count": 1
              },
              {
                "code": {
                  "coding": [
                    {
                      "system": "http://terminology.hl7.org/CodeSystem/measure-population",
                      "code": "denominator-exclusion",
                      "display": "Denominator Exclusion"
                    }
                  ]
                },
                "count": 0
              },
              {
                "code": {
                  "coding": [
                    {
                      "system": "http://terminology.hl7.org/CodeSystem/measure-population",
                      "code": "numerator",
                      "display": "Numerator"
                    }
                  ]
                },
                "count": 0
              },
              {
                "code": {
                  "coding": [
                    {
                      "system": "http://terminology.hl7.org/CodeSystem/measure-population",
                      "code": "denominator-exception",
                      "display": "Denominator Exception"
                    }
                  ]
                },
                "count": 0
              }
            ]
          }
        ],
        "evaluatedResource": [
          {
            "reference": "Patient/bf9310f7-a29c-4676-a648-f07fa076f708"
          },
          {
            "reference": "Encounter/7cce6b5a-3411-4916-b28f-4ccd72659860"
          },
          {
            "reference": "Condition/714041b1-2682-4679-a384-f3ab1b88ad90"
          },
          {
            "reference": "Coverage/bdbe90cc-dac0-4788-a19a-74baec88b753"
          },
          {
            "reference": "Organization/85c73181-3276-4d2c-8af6-d985b987351f"
          }
        ]
      },
      "request": {
        "method": "PUT",
        "url": "MeasureReport/d233e915-cd70-40e1-aace-8b5e82ed7a33"
      }
    }
  ]
}