{
  "resourceType": "Bundle",
  "id": "633b3f9f0968f80122503ce9",
  "type": "transaction",
  "entry": [
    {
      "fullUrl": "https://madie.cms.gov/Patient/216e077b-ac27-43e9-a4e2-f84c34e7eaae",
      "resource": {
        "resourceType": "Patient",
        "id": "216e077b-ac27-43e9-a4e2-f84c34e7eaae",
        "meta": {
          "profile": [
            "http://hl7.org/fhir/us/qicore/StructureDefinition/qicore-patient"
          ]
        },
        "text": {
          "status": "generated",
          "div": "<div xmlns=\"http://www.w3.org/1999/xhtml\"><div class=\"hapiHeaderText\">Age GT65 <b>IPFAIL </b></div><table class=\"hapiPropertyTable\"><tbody><tr><td>Date of birth</td><td><span>01 February 1946</span></td></tr></tbody></table></div>"
        },
        "extension": [
          {
            "url": "http://hl7.org/fhir/us/core/StructureDefinition/us-core-race",
            "extension": [
              {
                "url": "ombCategory",
                "valueCoding": {
                  "system": "urn:oid:2.16.840.1.113883.6.238",
                  "code": "1002-5",
                  "display": "American Indian or Alaska Native",
                  "userSelected": true
                }
              },
              {
                "url": "text",
                "valueString": "American Indian or Alaska Native"
              }
            ]
          },
          {
            "url": "http://hl7.org/fhir/us/core/StructureDefinition/us-core-ethnicity",
            "extension": [
              {
                "url": "ombCategory",
                "valueCoding": {
                  "system": "urn:oid:2.16.840.1.113883.6.238",
                  "code": "2135-2",
                  "display": "Hispanic or Latino",
                  "userSelected": true
                }
              },
              {
                "url": "text",
                "valueString": "Hispanic or Latino"
              }
            ]
          }
        ],
        "identifier": [
          {
            "type": {
              "coding": [
                {
                  "system": "http://terminology.hl7.org/CodeSystem/v2-0203",
                  "code": "MR"
                }
              ]
            },
            "system": "https://bonnie-fhir.healthit.gov/",
            "value": "633b3f9f0968f80122503ce9"
          }
        ],
        "active": true,
        "name": [
          {
            "use": "usual",
            "family": "IPFail",
            "given": [
              "Age GT65"
            ]
          }
        ],
        "gender": "female",
        "birthDate": "1958-02-01"
      },
      "request": {
        "method": "PUT",
        "url": "Patient/216e077b-ac27-43e9-a4e2-f84c34e7eaae"
      }
    },
    {
      "fullUrl": "https://madie.cms.gov/Encounter/b82a4128-9c9c-4de0-9f4b-2f728be319d0",
      "resource": {
        "resourceType": "Encounter",
        "id": "b82a4128-9c9c-4de0-9f4b-2f728be319d0",
        "meta": {
          "profile": [
            "http://hl7.org/fhir/us/qicore/StructureDefinition/qicore-encounter"
          ]
        },
        "status": "finished",
        "class": {
          "system": "http://terminology.hl7.org/CodeSystem/v3-ActCode",
          "code": "IMP",
          "display": "inpatient encounter"
        },
        "type": [
          {
            "coding": [
              {
                "system": "http://snomed.info/sct",
                "code": "183452005"
              }
            ]
          }
        ],
        "subject": {
          "reference": "Patient/216e077b-ac27-43e9-a4e2-f84c34e7eaae"
        },
        "period": {
          "start": "2024-02-01T08:00:00.000Z",
          "end": "2024-02-05T08:15:00.000Z"
        }
      },
      "request": {
        "method": "PUT",
        "url": "Encounter/b82a4128-9c9c-4de0-9f4b-2f728be319d0"
      }
    },
    {
      "fullUrl": "https://madie.cms.gov/Procedure/a437daa0-dbfb-4a50-9254-7309c12e971b",
      "resource": {
        "resourceType": "Procedure",
        "id": "a437daa0-dbfb-4a50-9254-7309c12e971b",
        "meta": {
          "profile": [
            "http://hl7.org/fhir/us/qicore/StructureDefinition/qicore-procedure"
          ]
        },
        "extension": [
          {
            "url": "http://hl7.org/fhir/us/qicore/StructureDefinition/qicore-recorded",
            "valueDateTime": "2013-04-05T09:35:00-04:00"
          }
        ],
        "status": "completed",
        "code": {
          "coding": [
            {
              "system": "http://snomed.info/sct",
              "code": "10745001"
            }
          ]
        },
        "subject": {
          "reference": "Patient/216e077b-ac27-43e9-a4e2-f84c34e7eaae"
        },
        "performedPeriod": {
          "start": "2024-02-01T08:00:00.000Z",
          "end": "2024-02-05T08:15:00.000Z"
        }
      },
      "request": {
        "method": "PUT",
        "url": "Procedure/a437daa0-dbfb-4a50-9254-7309c12e971b"
      }
    },
    {
      "fullUrl": "https://madie.cms.gov/Coverage/af0788f9-19fe-4756-a31a-65dbc01816f1",
      "resource": {
        "resourceType": "Coverage",
        "id": "af0788f9-19fe-4756-a31a-65dbc01816f1",
        "meta": {
          "profile": [
            "http://hl7.org/fhir/us/qicore/StructureDefinition/qicore-coverage"
          ]
        },
        "status": "active",
        "beneficiary": {
          "reference": "Patient/216e077b-ac27-43e9-a4e2-f84c34e7eaae"
        },
        "payor": [
          {
            "reference": "Organization/921791bf-241c-48aa-9bb8-ff148f0d6589"
          }
        ]
      },
      "request": {
        "method": "PUT",
        "url": "Coverage/af0788f9-19fe-4756-a31a-65dbc01816f1"
      }
    },
    {
      "fullUrl": "https://madie.cms.gov/Organization/921791bf-241c-48aa-9bb8-ff148f0d6589",
      "resource": {
        "resourceType": "Organization",
        "id": "921791bf-241c-48aa-9bb8-ff148f0d6589",
        "meta": {
          "profile": [
            "http://hl7.org/fhir/us/qicore/StructureDefinition/qicore-organization"
          ]
        },
        "identifier": [
          {
            "use": "temp",
            "system": "urn:oid:2.16.840.1.113883.4.4",
            "value": "21-3259825"
          }
        ],
        "active": true,
        "type": [
          {
            "coding": [
              {
                "system": "http://terminology.hl7.org/CodeSystem/organization-type",
                "code": "pay",
                "display": "Payer"
              }
            ]
          }
        ],
        "name": "Blue Cross Blue Shield of Texas",
        "telecom": [
          {
            "system": "phone",
            "value": "(+1) 972-766-6900"
          }
        ],
        "address": [
          {
            "use": "billing",
            "type": "postal",
            "line": [
              "P.O. Box 660044"
            ],
            "city": "Dallas",
            "state": "TX",
            "postalCode": "75266-0044",
            "country": "USA"
          }
        ]
      },
      "request": {
        "method": "PUT",
        "url": "Organization/921791bf-241c-48aa-9bb8-ff148f0d6589"
      }
    },
    {
      "fullUrl": "https://madie.cms.gov/Practitioner/4ada501a-965f-42e8-bd2e-2a5e75cce4c7",
      "resource": {
        "resourceType": "Practitioner",
        "id": "4ada501a-965f-42e8-bd2e-2a5e75cce4c7",
        "identifier": [
          {
            "system": "http://hl7.org/fhir/sid/us-npi",
            "value": "123456"
          }
        ],
        "name": [
          {
            "family": "Evil",
            "prefix": [
              "Dr"
            ]
          }
        ]
      },
      "request": {
        "method": "PUT",
        "url": "Practitioner/4ada501a-965f-42e8-bd2e-2a5e75cce4c7"
      }
    },
    {
      "fullUrl": "https://madie.cms.gov/MeasureReport/02d14937-c9db-4fad-8c44-63bd5cefd96e",
      "resource": {
        "resourceType": "MeasureReport",
        "id": "02d14937-c9db-4fad-8c44-63bd5cefd96e",
        "meta": {
          "profile": [
            "http://hl7.org/fhir/us/cqfmeasures/StructureDefinition/test-case-cqfm"
          ]
        },
        "contained": [
          {
            "resourceType": "Parameters",
            "id": "43a1177d-8bcb-42cb-93b7-4441d72aa10f-parameters",
            "parameter": [
              {
                "name": "subject",
                "valueString": "216e077b-ac27-43e9-a4e2-f84c34e7eaae"
              }
            ]
          }
        ],
        "extension": [
          {
            "url": "http://hl7.org/fhir/us/cqfmeasures/StructureDefinition/cqfm-inputParameters",
            "valueReference": {
              "reference": "#43a1177d-8bcb-42cb-93b7-4441d72aa10f-parameters"
            }
          },
          {
            "url": "http://hl7.org/fhir/us/cqfmeasures/StructureDefinition/cqfm-testCaseDescription",
            "valueMarkdown": "Patient turns 65 years of age on day encounter starts.\n"
          }
        ],
        "modifierExtension": [
          {
            "url": "http://hl7.org/fhir/us/cqfmeasures/StructureDefinition/cqfm-isTestCase",
            "valueBoolean": true
          }
        ],
        "status": "complete",
        "type": "individual",
        "measure": "https://madie.cms.gov/Measure/SevereObstetricComplicationsFHIR",
        "period": {
          "start": "2024-01-01",
          "end": "2024-12-31"
        },
        "group": [
          {
            "population": [
              {
                "code": {
                  "coding": [
                    {
                      "system": "http://terminology.hl7.org/CodeSystem/measure-population",
                      "code": "initial-population",
                      "display": "Initial Population"
                    }
                  ]
                },
                "count": 0
              },
              {
                "code": {
                  "coding": [
                    {
                      "system": "http://terminology.hl7.org/CodeSystem/measure-population",
                      "code": "denominator",
                      "display": "Denominator"
                    }
                  ]
                },
                "count": 0
              },
              {
                "code": {
                  "coding": [
                    {
                      "system": "http://terminology.hl7.org/CodeSystem/measure-population",
                      "code": "denominator-exclusion",
                      "display": "Denominator Exclusion"
                    }
                  ]
                },
                "count": 0
              },
              {
                "code": {
                  "coding": [
                    {
                      "system": "http://terminology.hl7.org/CodeSystem/measure-population",
                      "code": "numerator",
                      "display": "Numerator"
                    }
                  ]
                },
                "count": 0
              }
            ]
          }
        ],
        "evaluatedResource": [
          {
            "reference": "Patient/216e077b-ac27-43e9-a4e2-f84c34e7eaae"
          },
          {
            "reference": "Encounter/b82a4128-9c9c-4de0-9f4b-2f728be319d0"
          },
          {
            "reference": "Procedure/a437daa0-dbfb-4a50-9254-7309c12e971b"
          },
          {
            "reference": "Coverage/af0788f9-19fe-4756-a31a-65dbc01816f1"
          },
          {
            "reference": "Organization/921791bf-241c-48aa-9bb8-ff148f0d6589"
          },
          {
            "reference": "Practitioner/4ada501a-965f-42e8-bd2e-2a5e75cce4c7"
          }
        ]
      },
      "request": {
        "method": "PUT",
        "url": "MeasureReport/02d14937-c9db-4fad-8c44-63bd5cefd96e"
      }
    }
  ]
}