{
  "resourceType": "Bundle",
  "id": "63ec096dccb3770120fea2db",
  "type": "transaction",
  "entry": [
    {
      "fullUrl": "https://madie.cms.gov/Patient/b3fc91fd-2834-4197-af08-1e2217178183",
      "resource": {
        "resourceType": "Patient",
        "id": "b3fc91fd-2834-4197-af08-1e2217178183",
        "meta": {
          "profile": [
            "http://hl7.org/fhir/us/qicore/StructureDefinition/qicore-patient"
          ]
        },
        "text": {
          "status": "generated",
          "div": "<div xmlns=\"http://www.w3.org/1999/xhtml\"><div class=\"hapiHeaderText\">OtherPayer <b>IPFAIL </b></div><table class=\"hapiPropertyTable\"><tbody><tr><td>Identifier</td><td>994d6961b050377563af14f791a8facb4527a9b0f5746553e615286000e5f9bd</td></tr><tr><td>Date of birth</td><td><span>21 June 1956</span></td></tr></tbody></table></div>"
        },
        "extension": [
          {
            "url": "http://hl7.org/fhir/us/core/StructureDefinition/us-core-race",
            "extension": [
              {
                "url": "ombCategory",
                "valueCoding": {
                  "system": "urn:oid:2.16.840.1.113883.6.238",
                  "code": "1002-5",
                  "display": "American Indian or Alaska Native",
                  "userSelected": true
                }
              },
              {
                "url": "text",
                "valueString": "American Indian or Alaska Native"
              }
            ]
          },
          {
            "url": "http://hl7.org/fhir/us/core/StructureDefinition/us-core-ethnicity",
            "extension": [
              {
                "url": "ombCategory",
                "valueCoding": {
                  "system": "urn:oid:2.16.840.1.113883.6.238",
                  "code": "2186-5",
                  "display": "Not Hispanic or Latino",
                  "userSelected": true
                }
              },
              {
                "url": "text",
                "valueString": "Not Hispanic or Latino"
              }
            ]
          }
        ],
        "identifier": [
          {
            "type": {
              "coding": [
                {
                  "system": "http://terminology.hl7.org/CodeSystem/v2-0203",
                  "code": "MR"
                }
              ]
            },
            "system": "https://bonnie-fhir.healthit.gov/",
            "value": "63ec096dccb3770120fea2db"
          }
        ],
        "active": true,
        "name": [
          {
            "use": "usual",
            "family": "IPFail",
            "given": [
              "DifferentPayerValueSetIncludesMedicare"
            ]
          }
        ],
        "gender": "male",
        "birthDate": "1956-06-21"
      },
      "request": {
        "method": "PUT",
        "url": "Patient/b3fc91fd-2834-4197-af08-1e2217178183"
      }
    },
    {
      "fullUrl": "https://madie.cms.gov/Encounter/eaaa2966-c077-439a-a88d-1eb1e912f47d",
      "resource": {
        "resourceType": "Encounter",
        "id": "eaaa2966-c077-439a-a88d-1eb1e912f47d",
        "meta": {
          "profile": [
            "http://hl7.org/fhir/us/qicore/StructureDefinition/qicore-encounter"
          ]
        },
        "status": "finished",
        "class": {
          "system": "http://terminology.hl7.org/CodeSystem/v3-ActCode",
          "code": "IMP",
          "display": "inpatient encounter",
          "userSelected": true
        },
        "type": [
          {
            "coding": [
              {
                "system": "http://snomed.info/sct",
                "code": "183452005"
              }
            ]
          }
        ],
        "subject": {
          "reference": "Patient/b3fc91fd-2834-4197-af08-1e2217178183"
        },
        "period": {
          "start": "2025-07-01T08:00:00+00:00",
          "end": "2025-07-03T08:30:00+00:00"
        },
        "length": {
          "value": 2,
          "unit": "days"
        }
      },
      "request": {
        "method": "PUT",
        "url": "Encounter/eaaa2966-c077-439a-a88d-1eb1e912f47d"
      }
    },
    {
      "fullUrl": "https://madie.cms.gov/Coverage/e38cb651-7bcf-4c1a-a6ea-71ce8881d1e0",
      "resource": {
        "resourceType": "Coverage",
        "id": "e38cb651-7bcf-4c1a-a6ea-71ce8881d1e0",
        "meta": {
          "profile": [
            "http://hl7.org/fhir/us/qicore/StructureDefinition/qicore-coverage"
          ]
        },
        "status": "active",
        "type": {
          "coding": [
            {
              "system": "https://nahdo.org/sopt",
              "version": "1.0.1",
              "code": "119",
              "display": "Medicare managed care other",
              "userSelected": true
            }
          ]
        },
        "beneficiary": {
          "reference": "Patient/b3fc91fd-2834-4197-af08-1e2217178183"
        },
        "period": {
          "start": "2024-01-01T08:00:00.000+00:00",
          "end": "2026-01-12T08:15:00.000+00:00"
        },
        "payor": [
          {
            "reference": "Organization/32268700-81bc-40a0-8420-13762d9fc7e3"
          }
        ]
      },
      "request": {
        "method": "PUT",
        "url": "Coverage/e38cb651-7bcf-4c1a-a6ea-71ce8881d1e0"
      }
    },
    {
      "fullUrl": "https://madie.cms.gov/Organization/32268700-81bc-40a0-8420-13762d9fc7e3",
      "resource": {
        "resourceType": "Organization",
        "id": "32268700-81bc-40a0-8420-13762d9fc7e3",
        "meta": {
          "profile": [
            "http://hl7.org/fhir/us/qicore/StructureDefinition/qicore-organization"
          ]
        },
        "identifier": [
          {
            "use": "temp",
            "system": "urn:oid:2.16.840.1.113883.4.4",
            "value": "21-3259825"
          }
        ],
        "active": true,
        "type": [
          {
            "coding": [
              {
                "system": "http://terminology.hl7.org/CodeSystem/organization-type",
                "code": "pay",
                "display": "Payer"
              }
            ]
          }
        ],
        "name": "Blue Cross Blue Shield of Texas",
        "telecom": [
          {
            "system": "phone",
            "value": "(+1) 972-766-6900"
          }
        ],
        "address": [
          {
            "use": "billing",
            "type": "postal",
            "line": [
              "P.O. Box 660044"
            ],
            "city": "Dallas",
            "state": "TX",
            "postalCode": "75266-0044",
            "country": "USA"
          }
        ]
      },
      "request": {
        "method": "PUT",
        "url": "Organization/32268700-81bc-40a0-8420-13762d9fc7e3"
      }
    },
    {
      "fullUrl": "https://madie.cms.gov/Practitioner/a3c38da8-1472-4938-aba9-644fe8f6c373",
      "resource": {
        "resourceType": "Practitioner",
        "id": "a3c38da8-1472-4938-aba9-644fe8f6c373",
        "meta": {
          "profile": [
            "http://hl7.org/fhir/us/qicore/StructureDefinition/qicore-practitioner"
          ]
        },
        "identifier": [
          {
            "system": "http://hl7.org/fhir/sid/us-npi",
            "value": "123456"
          }
        ],
        "name": [
          {
            "family": "Evil",
            "prefix": [
              "Dr"
            ]
          }
        ]
      },
      "request": {
        "method": "PUT",
        "url": "Practitioner/a3c38da8-1472-4938-aba9-644fe8f6c373"
      }
    },
    {
      "fullUrl": "https://madie.cms.gov/MeasureReport/d40d8680-7415-4be0-807f-2670382bcc89",
      "resource": {
        "resourceType": "MeasureReport",
        "id": "d40d8680-7415-4be0-807f-2670382bcc89",
        "meta": {
          "profile": [
            "http://hl7.org/fhir/us/cqfmeasures/StructureDefinition/test-case-cqfm"
          ]
        },
        "contained": [
          {
            "resourceType": "Parameters",
            "id": "61259457-c578-4b65-812c-b6eb2bca574b-parameters",
            "parameter": [
              {
                "name": "subject",
                "valueString": "b3fc91fd-2834-4197-af08-1e2217178183"
              }
            ]
          }
        ],
        "extension": [
          {
            "url": "http://hl7.org/fhir/us/cqfmeasures/StructureDefinition/cqfm-inputParameters",
            "valueReference": {
              "reference": "#61259457-c578-4b65-812c-b6eb2bca574b-parameters"
            }
          },
          {
            "url": "http://hl7.org/fhir/us/cqfmeasures/StructureDefinition/cqfm-testCaseDescription",
            "valueMarkdown": "Enc first day of MP July 1 - 3rd, Payer from different VS but SOP 119  is include in the Medicare Advantage payer vs so meets insurance expectation; "
          }
        ],
        "modifierExtension": [
          {
            "url": "http://hl7.org/fhir/us/cqfmeasures/StructureDefinition/cqfm-isTestCase",
            "valueBoolean": true
          }
        ],
        "status": "complete",
        "type": "individual",
        "measure": "https://madie.cms.gov/Measure/HybridHospitalWideMortalityFHIR",
        "period": {
          "start": "2025-07-01",
          "end": "2026-06-30"
        },
        "group": [
          {
            "population": [
              {
                "code": {
                  "coding": [
                    {
                      "system": "http://terminology.hl7.org/CodeSystem/measure-population",
                      "code": "initial-population",
                      "display": "Initial Population"
                    }
                  ]
                },
                "count": 1
              }
            ]
          }
        ],
        "evaluatedResource": [
          {
            "reference": "Patient/b3fc91fd-2834-4197-af08-1e2217178183"
          },
          {
            "reference": "Encounter/eaaa2966-c077-439a-a88d-1eb1e912f47d"
          },
          {
            "reference": "Coverage/e38cb651-7bcf-4c1a-a6ea-71ce8881d1e0"
          },
          {
            "reference": "Organization/32268700-81bc-40a0-8420-13762d9fc7e3"
          },
          {
            "reference": "Practitioner/a3c38da8-1472-4938-aba9-644fe8f6c373"
          }
        ]
      },
      "request": {
        "method": "PUT",
        "url": "MeasureReport/d40d8680-7415-4be0-807f-2670382bcc89"
      }
    }
  ]
}