{
  "resourceType": "Bundle",
  "id": "6129131702c62a011f2e59fa",
  "type": "transaction",
  "entry": [
    {
      "fullUrl": "https://madie.cms.gov/Patient/965e4b18-e8fd-4334-80d0-4c87644d7b95",
      "resource": {
        "resourceType": "Patient",
        "id": "965e4b18-e8fd-4334-80d0-4c87644d7b95",
        "meta": {
          "profile": [
            "http://hl7.org/fhir/us/qicore/StructureDefinition/qicore-patient"
          ]
        },
        "text": {
          "status": "generated",
          "div": "<div xmlns=\"http://www.w3.org/1999/xhtml\"><div class=\"hapiHeaderText\">2Enc3WithAntithrombotic <b>NUMER&amp;DENEXCEPPASS- LCG </b></div><table class=\"hapiPropertyTable\"><tbody><tr><td>Identifier</td><td>be14f222c0646cc5d7ac050774528f5e42a5a6df28c00c64454006e7ac2a1af3</td></tr><tr><td>Date of birth</td><td><span>31 May 1989</span></td></tr></tbody></table></div>"
        },
        "extension": [
          {
            "url": "http://hl7.org/fhir/us/core/StructureDefinition/us-core-race",
            "extension": [
              {
                "url": "ombCategory",
                "valueCoding": {
                  "system": "urn:oid:2.16.840.1.113883.6.238",
                  "code": "1002-5",
                  "display": "American Indian or Alaska Native",
                  "userSelected": true
                }
              },
              {
                "url": "text",
                "valueString": "American Indian or Alaska Native"
              }
            ]
          },
          {
            "url": "http://hl7.org/fhir/us/core/StructureDefinition/us-core-ethnicity",
            "extension": [
              {
                "url": "ombCategory",
                "valueCoding": {
                  "system": "urn:oid:2.16.840.1.113883.6.238",
                  "code": "2135-2",
                  "display": "Hispanic or Latino",
                  "userSelected": true
                }
              },
              {
                "url": "text",
                "valueString": "Hispanic or Latino"
              }
            ]
          }
        ],
        "identifier": [
          {
            "type": {
              "coding": [
                {
                  "system": "http://terminology.hl7.org/CodeSystem/v2-0203",
                  "code": "MR"
                }
              ]
            },
            "system": "https://bonnie-fhir.healthit.gov/",
            "value": "6129131702c62a011f2e59fa"
          }
        ],
        "active": true,
        "name": [
          {
            "use": "usual",
            "family": "NUMER&DENEXCEPPass- LCG",
            "given": [
              "2Enc3WithAntithrombotic"
            ]
          }
        ],
        "gender": "male",
        "birthDate": "1998-05-31"
      },
      "request": {
        "method": "PUT",
        "url": "Patient/965e4b18-e8fd-4334-80d0-4c87644d7b95"
      }
    },
    {
      "fullUrl": "https://madie.cms.gov/Encounter/11343732-e96d-4699-b0a0-1869f8d49baa",
      "resource": {
        "resourceType": "Encounter",
        "id": "11343732-e96d-4699-b0a0-1869f8d49baa",
        "meta": {
          "profile": [
            "http://hl7.org/fhir/us/qicore/StructureDefinition/qicore-encounter"
          ]
        },
        "status": "finished",
        "class": {
          "system": "http://terminology.hl7.org/CodeSystem/v3-ActCode",
          "code": "IMP",
          "display": "inpatient encounter",
          "userSelected": true
        },
        "type": [
          {
            "coding": [
              {
                "system": "http://snomed.info/sct",
                "code": "183452005"
              }
            ]
          }
        ],
        "subject": {
          "reference": "Patient/965e4b18-e8fd-4334-80d0-4c87644d7b95"
        },
        "period": {
          "start": "2025-06-14T09:30:00.000+00:00",
          "end": "2025-06-25T10:30:00.000+00:00"
        },
        "length": {
          "value": 0,
          "unit": "days"
        },
        "diagnosis": [
          {
            "condition": {
              "reference": "Condition/35c109ea-d395-4bdd-871e-ded76073e907"
            },
            "use": {
              "coding": [
                {
                  "system": "http://terminology.hl7.org/CodeSystem/diagnosis-role",
                  "code": "billing",
                  "display": "Billing"
                }
              ]
            },
            "rank": 1
          }
        ]
      },
      "request": {
        "method": "PUT",
        "url": "Encounter/11343732-e96d-4699-b0a0-1869f8d49baa"
      }
    },
    {
      "fullUrl": "https://madie.cms.gov/Encounter/ce08752b-66f3-4e91-a033-ec2fcfaa20ee",
      "resource": {
        "resourceType": "Encounter",
        "id": "ce08752b-66f3-4e91-a033-ec2fcfaa20ee",
        "meta": {
          "profile": [
            "http://hl7.org/fhir/us/qicore/StructureDefinition/qicore-encounter"
          ]
        },
        "status": "finished",
        "class": {
          "system": "http://terminology.hl7.org/CodeSystem/v3-ActCode",
          "code": "IMP",
          "display": "inpatient encounter",
          "userSelected": true
        },
        "type": [
          {
            "coding": [
              {
                "system": "http://snomed.info/sct",
                "code": "32485007"
              }
            ]
          }
        ],
        "subject": {
          "reference": "Patient/965e4b18-e8fd-4334-80d0-4c87644d7b95"
        },
        "period": {
          "start": "2025-06-15T09:30:00.000+00:00",
          "end": "2025-10-12T10:30:00.000+00:00"
        },
        "length": {
          "value": 119,
          "unit": "days"
        },
        "diagnosis": [
          {
            "condition": {
              "reference": "Condition/7c5ea3cf-50a3-4fb0-a4a9-06b71de0a6b7"
            },
            "use": {
              "coding": [
                {
                  "system": "http://terminology.hl7.org/CodeSystem/diagnosis-role",
                  "code": "billing",
                  "display": "Billing"
                }
              ]
            },
            "rank": 1
          }
        ]
      },
      "request": {
        "method": "PUT",
        "url": "Encounter/ce08752b-66f3-4e91-a033-ec2fcfaa20ee"
      }
    },
    {
      "fullUrl": "https://madie.cms.gov/MedicationRequest/0aecb681-26b6-49f0-ae15-b90338256ad4",
      "resource": {
        "resourceType": "MedicationRequest",
        "id": "0aecb681-26b6-49f0-ae15-b90338256ad4",
        "meta": {
          "profile": [
            "http://hl7.org/fhir/us/qicore/StructureDefinition/qicore-medicationrequest"
          ]
        },
        "status": "active",
        "intent": "order",
        "category": [
          {
            "coding": [
              {
                "system": "http://terminology.hl7.org/CodeSystem/medicationrequest-category",
                "code": "discharge",
                "display": "Discharge",
                "userSelected": true
              }
            ]
          }
        ],
        "medicationCodeableConcept": {
          "coding": [
            {
              "system": "http://www.nlm.nih.gov/research/umls/rxnorm",
              "code": "1037045"
            }
          ]
        },
        "subject": {
          "reference": "Patient/965e4b18-e8fd-4334-80d0-4c87644d7b95"
        },
        "authoredOn": "2025-10-10T10:00:00.000+00:00",
        "requester": {
          "reference": "Practitioner/example"
        }
      },
      "request": {
        "method": "PUT",
        "url": "MedicationRequest/0aecb681-26b6-49f0-ae15-b90338256ad4"
      }
    },
    {
      "fullUrl": "https://madie.cms.gov/MedicationRequest/f00242b1-9392-4d18-b3ae-c4b323c958b8",
      "resource": {
        "resourceType": "MedicationRequest",
        "id": "f00242b1-9392-4d18-b3ae-c4b323c958b8",
        "meta": {
          "profile": [
            "http://hl7.org/fhir/us/qicore/StructureDefinition/qicore-medicationrequest"
          ]
        },
        "status": "active",
        "intent": "order",
        "category": [
          {
            "coding": [
              {
                "system": "http://terminology.hl7.org/CodeSystem/medicationrequest-category",
                "code": "discharge",
                "display": "Discharge",
                "userSelected": true
              }
            ]
          }
        ],
        "medicationCodeableConcept": {
          "coding": [
            {
              "system": "http://www.nlm.nih.gov/research/umls/rxnorm",
              "code": "1037045"
            }
          ]
        },
        "subject": {
          "reference": "Patient/965e4b18-e8fd-4334-80d0-4c87644d7b95"
        },
        "authoredOn": "2025-06-14T09:30:00.000+00:00",
        "requester": {
          "reference": "Practitioner/example"
        }
      },
      "request": {
        "method": "PUT",
        "url": "MedicationRequest/f00242b1-9392-4d18-b3ae-c4b323c958b8"
      }
    },
    {
      "fullUrl": "https://madie.cms.gov/MedicationRequest/fa720b59-8c33-4a43-91db-f02b26b83327",
      "resource": {
        "resourceType": "MedicationRequest",
        "id": "fa720b59-8c33-4a43-91db-f02b26b83327",
        "meta": {
          "profile": [
            "http://hl7.org/fhir/us/qicore/StructureDefinition/qicore-medicationrequest"
          ]
        },
        "status": "active",
        "intent": "order",
        "category": [
          {
            "coding": [
              {
                "system": "http://terminology.hl7.org/CodeSystem/medicationrequest-category",
                "code": "discharge",
                "display": "Discharge",
                "userSelected": true
              }
            ]
          }
        ],
        "medicationCodeableConcept": {
          "coding": [
            {
              "system": "http://www.nlm.nih.gov/research/umls/rxnorm",
              "code": "1116635"
            }
          ]
        },
        "subject": {
          "reference": "Patient/965e4b18-e8fd-4334-80d0-4c87644d7b95"
        },
        "authoredOn": "2025-01-15T11:00:00.000+00:00",
        "requester": {
          "reference": "Practitioner/example"
        }
      },
      "request": {
        "method": "PUT",
        "url": "MedicationRequest/fa720b59-8c33-4a43-91db-f02b26b83327"
      }
    },
    {
      "fullUrl": "https://madie.cms.gov/MedicationRequest/70b1bf09-4a56-463b-9941-fdfb30391cfd",
      "resource": {
        "resourceType": "MedicationRequest",
        "id": "70b1bf09-4a56-463b-9941-fdfb30391cfd",
        "meta": {
          "profile": [
            "http://hl7.org/fhir/us/qicore/StructureDefinition/qicore-medicationrequest"
          ]
        },
        "status": "active",
        "intent": "order",
        "category": [
          {
            "coding": [
              {
                "system": "http://terminology.hl7.org/CodeSystem/medicationrequest-category",
                "code": "discharge",
                "display": "Discharge",
                "userSelected": true
              }
            ]
          }
        ],
        "medicationCodeableConcept": {
          "coding": [
            {
              "system": "http://www.nlm.nih.gov/research/umls/rxnorm",
              "code": "1037045"
            }
          ]
        },
        "subject": {
          "reference": "Patient/965e4b18-e8fd-4334-80d0-4c87644d7b95"
        },
        "authoredOn": "2025-06-14T09:30:00.000+00:00",
        "requester": {
          "reference": "Practitioner/example"
        }
      },
      "request": {
        "method": "PUT",
        "url": "MedicationRequest/70b1bf09-4a56-463b-9941-fdfb30391cfd"
      }
    },
    {
      "fullUrl": "https://madie.cms.gov/Condition/35c109ea-d395-4bdd-871e-ded76073e907",
      "resource": {
        "resourceType": "Condition",
        "id": "35c109ea-d395-4bdd-871e-ded76073e907",
        "meta": {
          "profile": [
            "http://hl7.org/fhir/us/qicore/StructureDefinition/qicore-condition"
          ]
        },
        "clinicalStatus": {
          "coding": [
            {
              "system": "http://terminology.hl7.org/CodeSystem/condition-clinical",
              "code": "active"
            }
          ]
        },
        "verificationStatus": {
          "coding": [
            {
              "system": "http://terminology.hl7.org/CodeSystem/condition-ver-status",
              "code": "confirmed"
            }
          ]
        },
        "category": [
          {
            "coding": [
              {
                "system": "http://terminology.hl7.org/CodeSystem/condition-category",
                "code": "encounter-diagnosis",
                "display": "Encounter Diagnosis"
              }
            ]
          }
        ],
        "code": {
          "coding": [
            {
              "system": "http://snomed.info/sct",
              "version": "2020-09",
              "code": "111297002",
              "display": "Nonparalytic stroke (disorder)",
              "userSelected": true
            }
          ]
        },
        "subject": {
          "reference": "Patient/965e4b18-e8fd-4334-80d0-4c87644d7b95"
        },
        "recordedDate": "2025-07-15T08:00:00.000+00:00"
      },
      "request": {
        "method": "PUT",
        "url": "Condition/35c109ea-d395-4bdd-871e-ded76073e907"
      }
    },
    {
      "fullUrl": "https://madie.cms.gov/Condition/7c5ea3cf-50a3-4fb0-a4a9-06b71de0a6b7",
      "resource": {
        "resourceType": "Condition",
        "id": "7c5ea3cf-50a3-4fb0-a4a9-06b71de0a6b7",
        "meta": {
          "profile": [
            "http://hl7.org/fhir/us/qicore/StructureDefinition/qicore-condition"
          ]
        },
        "clinicalStatus": {
          "coding": [
            {
              "system": "http://terminology.hl7.org/CodeSystem/condition-clinical",
              "code": "active"
            }
          ]
        },
        "verificationStatus": {
          "coding": [
            {
              "system": "http://terminology.hl7.org/CodeSystem/condition-ver-status",
              "code": "confirmed"
            }
          ]
        },
        "category": [
          {
            "coding": [
              {
                "system": "http://terminology.hl7.org/CodeSystem/condition-category",
                "code": "encounter-diagnosis",
                "display": "Encounter Diagnosis"
              }
            ]
          }
        ],
        "code": {
          "coding": [
            {
              "system": "http://snomed.info/sct",
              "version": "2020-09",
              "code": "111297002",
              "display": "Nonparalytic stroke (disorder)",
              "userSelected": true
            }
          ]
        },
        "subject": {
          "reference": "Patient/965e4b18-e8fd-4334-80d0-4c87644d7b95"
        },
        "recordedDate": "2025-07-15T08:00:00.000+00:00"
      },
      "request": {
        "method": "PUT",
        "url": "Condition/7c5ea3cf-50a3-4fb0-a4a9-06b71de0a6b7"
      }
    },
    {
      "fullUrl": "https://madie.cms.gov/Coverage/ad3dd11c-7c21-4948-970b-758bdbcf59d7",
      "resource": {
        "resourceType": "Coverage",
        "id": "ad3dd11c-7c21-4948-970b-758bdbcf59d7",
        "meta": {
          "profile": [
            "http://hl7.org/fhir/us/qicore/StructureDefinition/qicore-coverage"
          ]
        },
        "status": "active",
        "beneficiary": {
          "reference": "Patient/965e4b18-e8fd-4334-80d0-4c87644d7b95"
        },
        "payor": [
          {
            "reference": "Organization/0aef2127-03a3-4b93-a98f-9c2cb70cdce1"
          }
        ]
      },
      "request": {
        "method": "PUT",
        "url": "Coverage/ad3dd11c-7c21-4948-970b-758bdbcf59d7"
      }
    },
    {
      "fullUrl": "https://madie.cms.gov/Organization/0aef2127-03a3-4b93-a98f-9c2cb70cdce1",
      "resource": {
        "resourceType": "Organization",
        "id": "0aef2127-03a3-4b93-a98f-9c2cb70cdce1",
        "meta": {
          "profile": [
            "http://hl7.org/fhir/us/qicore/StructureDefinition/qicore-organization"
          ]
        },
        "identifier": [
          {
            "use": "temp",
            "system": "urn:oid:2.16.840.1.113883.4.4",
            "value": "21-3259825"
          }
        ],
        "active": true,
        "type": [
          {
            "coding": [
              {
                "system": "http://terminology.hl7.org/CodeSystem/organization-type",
                "code": "pay",
                "display": "Payer"
              }
            ]
          }
        ],
        "name": "Blue Cross Blue Shield of Texas",
        "telecom": [
          {
            "system": "phone",
            "value": "(+1) 972-766-6900"
          }
        ],
        "address": [
          {
            "use": "billing",
            "type": "postal",
            "line": [
              "P.O. Box 660044"
            ],
            "city": "Dallas",
            "state": "TX",
            "postalCode": "75266-0044",
            "country": "USA"
          }
        ]
      },
      "request": {
        "method": "PUT",
        "url": "Organization/0aef2127-03a3-4b93-a98f-9c2cb70cdce1"
      }
    },
    {
      "fullUrl": "https://madie.cms.gov/MeasureReport/c15ec7a1-4e7d-4159-809f-cebb7130947a",
      "resource": {
        "resourceType": "MeasureReport",
        "id": "c15ec7a1-4e7d-4159-809f-cebb7130947a",
        "meta": {
          "profile": [
            "http://hl7.org/fhir/us/cqfmeasures/StructureDefinition/test-case-cqfm"
          ]
        },
        "contained": [
          {
            "resourceType": "Parameters",
            "id": "b7a0c8f5-8e58-4268-b3c8-d48a1d59a45b-parameters",
            "parameter": [
              {
                "name": "subject",
                "valueString": "965e4b18-e8fd-4334-80d0-4c87644d7b95"
              }
            ]
          }
        ],
        "extension": [
          {
            "url": "http://hl7.org/fhir/us/cqfmeasures/StructureDefinition/cqfm-inputParameters",
            "valueReference": {
              "reference": "#b7a0c8f5-8e58-4268-b3c8-d48a1d59a45b-parameters"
            }
          },
          {
            "url": "http://hl7.org/fhir/us/cqfmeasures/StructureDefinition/cqfm-testCaseDescription",
            "valueMarkdown": "Patient is GT 18 with 2 Non-Elective Inpatient Encounter (LOS 120 days) with principal diagnosis of ischemic stroke ends during MP received antithrombotic during both IP encounter. \n"
          }
        ],
        "modifierExtension": [
          {
            "url": "http://hl7.org/fhir/us/cqfmeasures/StructureDefinition/cqfm-isTestCase",
            "valueBoolean": true
          }
        ],
        "status": "complete",
        "type": "individual",
        "measure": "https://madie.cms.gov/Measure/DischargedonAntithromboticTherapyFHIR",
        "period": {
          "start": "2025-01-01",
          "end": "2025-12-31"
        },
        "group": [
          {
            "population": [
              {
                "code": {
                  "coding": [
                    {
                      "system": "http://terminology.hl7.org/CodeSystem/measure-population",
                      "code": "initial-population",
                      "display": "Initial Population"
                    }
                  ]
                },
                "count": 2
              },
              {
                "code": {
                  "coding": [
                    {
                      "system": "http://terminology.hl7.org/CodeSystem/measure-population",
                      "code": "denominator",
                      "display": "Denominator"
                    }
                  ]
                },
                "count": 2
              },
              {
                "code": {
                  "coding": [
                    {
                      "system": "http://terminology.hl7.org/CodeSystem/measure-population",
                      "code": "denominator-exclusion",
                      "display": "Denominator Exclusion"
                    }
                  ]
                },
                "count": 0
              },
              {
                "code": {
                  "coding": [
                    {
                      "system": "http://terminology.hl7.org/CodeSystem/measure-population",
                      "code": "numerator",
                      "display": "Numerator"
                    }
                  ]
                },
                "count": 2
              },
              {
                "code": {
                  "coding": [
                    {
                      "system": "http://terminology.hl7.org/CodeSystem/measure-population",
                      "code": "denominator-exception",
                      "display": "Denominator Exception"
                    }
                  ]
                },
                "count": 0
              }
            ]
          }
        ],
        "evaluatedResource": [
          {
            "reference": "Patient/965e4b18-e8fd-4334-80d0-4c87644d7b95"
          },
          {
            "reference": "Encounter/11343732-e96d-4699-b0a0-1869f8d49baa"
          },
          {
            "reference": "Encounter/ce08752b-66f3-4e91-a033-ec2fcfaa20ee"
          },
          {
            "reference": "MedicationRequest/0aecb681-26b6-49f0-ae15-b90338256ad4"
          },
          {
            "reference": "MedicationRequest/f00242b1-9392-4d18-b3ae-c4b323c958b8"
          },
          {
            "reference": "MedicationRequest/fa720b59-8c33-4a43-91db-f02b26b83327"
          },
          {
            "reference": "MedicationRequest/70b1bf09-4a56-463b-9941-fdfb30391cfd"
          },
          {
            "reference": "Condition/35c109ea-d395-4bdd-871e-ded76073e907"
          },
          {
            "reference": "Condition/7c5ea3cf-50a3-4fb0-a4a9-06b71de0a6b7"
          },
          {
            "reference": "Coverage/ad3dd11c-7c21-4948-970b-758bdbcf59d7"
          },
          {
            "reference": "Organization/0aef2127-03a3-4b93-a98f-9c2cb70cdce1"
          }
        ]
      },
      "request": {
        "method": "PUT",
        "url": "MeasureReport/c15ec7a1-4e7d-4159-809f-cebb7130947a"
      }
    }
  ]
}