{
  "resourceType": "Bundle",
  "id": "63594c7a6aee9629c82981df",
  "type": "transaction",
  "entry": [
    {
      "fullUrl": "https://madie.cms.gov/Patient/ae631e85-e1f3-46fb-a7f9-9c017b0191e7",
      "resource": {
        "resourceType": "Patient",
        "id": "ae631e85-e1f3-46fb-a7f9-9c017b0191e7",
        "meta": {
          "profile": [
            "http://hl7.org/fhir/us/qicore/StructureDefinition/qicore-patient"
          ]
        },
        "text": {
          "status": "generated",
          "div": "<div xmlns=\"http://www.w3.org/1999/xhtml\"><div class=\"hapiHeaderText\">Risk_MentalHealthDisorder<b>RISKPass </b></div><table class=\"hapiPropertyTable\"><tbody><tr><td>Date of birth</td><td><span>01 February 2004</span></td></tr></tbody></table></div>"
        },
        "extension": [
          {
            "url": "http://hl7.org/fhir/us/core/StructureDefinition/us-core-race",
            "extension": [
              {
                "url": "ombCategory",
                "valueCoding": {
                  "system": "urn:oid:2.16.840.1.113883.6.238",
                  "code": "1002-5",
                  "display": "American Indian or Alaska Native",
                  "userSelected": true
                }
              },
              {
                "url": "text",
                "valueString": "American Indian or Alaska Native"
              }
            ]
          },
          {
            "url": "http://hl7.org/fhir/us/core/StructureDefinition/us-core-ethnicity",
            "extension": [
              {
                "url": "ombCategory",
                "valueCoding": {
                  "system": "urn:oid:2.16.840.1.113883.6.238",
                  "code": "2135-2",
                  "display": "Hispanic or Latino",
                  "userSelected": true
                }
              },
              {
                "url": "text",
                "valueString": "Hispanic or Latino"
              }
            ]
          }
        ],
        "identifier": [
          {
            "type": {
              "coding": [
                {
                  "system": "http://terminology.hl7.org/CodeSystem/v2-0203",
                  "code": "MR"
                }
              ]
            },
            "system": "https://bonnie-fhir.healthit.gov/",
            "value": "63594c7a6aee9629c82981df"
          }
        ],
        "active": true,
        "name": [
          {
            "use": "usual",
            "family": "RiskPass",
            "given": [
              "Risk_MentalHealthDisorder"
            ]
          }
        ],
        "gender": "female",
        "birthDate": "2004-02-01"
      },
      "request": {
        "method": "PUT",
        "url": "Patient/ae631e85-e1f3-46fb-a7f9-9c017b0191e7"
      }
    },
    {
      "fullUrl": "https://madie.cms.gov/Observation/1aab58d8-23c8-49f8-b372-0f8d3f7580ac",
      "resource": {
        "resourceType": "Observation",
        "id": "1aab58d8-23c8-49f8-b372-0f8d3f7580ac",
        "meta": {
          "profile": [
            "http://hl7.org/fhir/us/qicore/StructureDefinition/qicore-observation"
          ]
        },
        "status": "final",
        "category": [
          {
            "coding": [
              {
                "system": "http://terminology.hl7.org/CodeSystem/observation-category",
                "code": "exam",
                "display": "exam",
                "userSelected": true
              }
            ]
          }
        ],
        "code": {
          "coding": [
            {
              "system": "http://loinc.org",
              "code": "93857-1"
            }
          ]
        },
        "subject": {
          "reference": "Patient/ae631e85-e1f3-46fb-a7f9-9c017b0191e7"
        },
        "effectiveDateTime": "2024-02-01T08:00:00.000+00:00",
        "valueDateTime": "2024-02-01T08:00:00+00:00"
      },
      "request": {
        "method": "PUT",
        "url": "Observation/1aab58d8-23c8-49f8-b372-0f8d3f7580ac"
      }
    },
    {
      "fullUrl": "https://madie.cms.gov/Observation/741ab6f6-73a8-461f-84f5-eea1412dfc3a",
      "resource": {
        "resourceType": "Observation",
        "id": "741ab6f6-73a8-461f-84f5-eea1412dfc3a",
        "meta": {
          "profile": [
            "http://hl7.org/fhir/us/qicore/StructureDefinition/qicore-observation"
          ]
        },
        "status": "final",
        "category": [
          {
            "coding": [
              {
                "system": "http://terminology.hl7.org/CodeSystem/observation-category",
                "code": "exam",
                "display": "exam",
                "userSelected": true
              }
            ]
          }
        ],
        "code": {
          "coding": [
            {
              "system": "http://loinc.org",
              "code": "11778-8"
            }
          ]
        },
        "subject": {
          "reference": "Patient/ae631e85-e1f3-46fb-a7f9-9c017b0191e7"
        },
        "effectiveDateTime": "2024-02-01T08:00:00.000+00:00",
        "valueDateTime": "2024-02-01T00:00:00.000+00:00"
      },
      "request": {
        "method": "PUT",
        "url": "Observation/741ab6f6-73a8-461f-84f5-eea1412dfc3a"
      }
    },
    {
      "fullUrl": "https://madie.cms.gov/Encounter/17981bc5-971d-4c1b-add8-87ffe4381c15",
      "resource": {
        "resourceType": "Encounter",
        "id": "17981bc5-971d-4c1b-add8-87ffe4381c15",
        "meta": {
          "profile": [
            "http://hl7.org/fhir/us/qicore/StructureDefinition/qicore-encounter"
          ]
        },
        "status": "finished",
        "class": {
          "system": "http://terminology.hl7.org/CodeSystem/v3-ActCode",
          "code": "IMP",
          "display": "inpatient encounter"
        },
        "type": [
          {
            "coding": [
              {
                "system": "http://snomed.info/sct",
                "code": "183452005"
              }
            ]
          }
        ],
        "subject": {
          "reference": "Patient/ae631e85-e1f3-46fb-a7f9-9c017b0191e7"
        },
        "period": {
          "start": "2024-02-01T08:00:00.000Z",
          "end": "2024-02-05T08:15:00.000Z"
        },
        "diagnosis": [
          {
            "extension": [
              {
                "url": "http://hl7.org/fhir/us/qicore/StructureDefinition/qicore-encounter-diagnosisPresentOnAdmission",
                "valueCodeableConcept": {
                  "coding": [
                    {
                      "system": "https://www.cms.gov/Medicare/Medicare-Fee-for-Service-Payment/HospitalAcqCond/Coding",
                      "code": "Y"
                    }
                  ]
                }
              }
            ],
            "condition": {
              "reference": "Condition/f1b64e32-cc14-4bec-80f8-36423bc237d6"
            }
          },
          {
            "extension": [
              {
                "url": "http://hl7.org/fhir/us/qicore/StructureDefinition/qicore-encounter-diagnosisPresentOnAdmission",
                "valueCodeableConcept": {
                  "coding": [
                    {
                      "system": "https://www.cms.gov/Medicare/Medicare-Fee-for-Service-Payment/HospitalAcqCond/Coding",
                      "code": "N"
                    }
                  ]
                }
              }
            ],
            "condition": {
              "reference": "Condition/cbf71c7e-1749-4a7a-957e-acd29206651c"
            }
          }
        ]
      },
      "request": {
        "method": "PUT",
        "url": "Encounter/17981bc5-971d-4c1b-add8-87ffe4381c15"
      }
    },
    {
      "fullUrl": "https://madie.cms.gov/Procedure/1b2537d2-b93f-4528-b834-5fe3ea9f5144",
      "resource": {
        "resourceType": "Procedure",
        "id": "1b2537d2-b93f-4528-b834-5fe3ea9f5144",
        "meta": {
          "profile": [
            "http://hl7.org/fhir/us/qicore/StructureDefinition/qicore-procedure"
          ]
        },
        "extension": [
          {
            "url": "http://hl7.org/fhir/us/qicore/StructureDefinition/qicore-recorded",
            "valueDateTime": "2013-04-05T09:35:00-04:00"
          }
        ],
        "status": "completed",
        "code": {
          "coding": [
            {
              "system": "http://snomed.info/sct",
              "code": "10745001"
            }
          ]
        },
        "subject": {
          "reference": "Patient/ae631e85-e1f3-46fb-a7f9-9c017b0191e7"
        },
        "performedDateTime": "2024-02-01T08:00:00.000+00:00"
      },
      "request": {
        "method": "PUT",
        "url": "Procedure/1b2537d2-b93f-4528-b834-5fe3ea9f5144"
      }
    },
    {
      "fullUrl": "https://madie.cms.gov/Condition/cbf71c7e-1749-4a7a-957e-acd29206651c",
      "resource": {
        "resourceType": "Condition",
        "id": "cbf71c7e-1749-4a7a-957e-acd29206651c",
        "meta": {
          "profile": [
            "http://hl7.org/fhir/us/qicore/StructureDefinition/qicore-condition"
          ]
        },
        "category": [
          {
            "coding": [
              {
                "system": "http://terminology.hl7.org/CodeSystem/condition-category",
                "code": "encounter-diagnosis",
                "display": "Encounter Diagnosis"
              }
            ]
          }
        ],
        "code": {
          "coding": [
            {
              "system": "http://hl7.org/fhir/sid/icd-10-cm",
              "version": "2023",
              "code": "A32.7",
              "display": "Listerial sepsis",
              "userSelected": true
            }
          ]
        },
        "subject": {
          "reference": "Patient/ae631e85-e1f3-46fb-a7f9-9c017b0191e7"
        },
        "recordedDate": "2024-10-26T08:00:00.000+00:00"
      },
      "request": {
        "method": "PUT",
        "url": "Condition/cbf71c7e-1749-4a7a-957e-acd29206651c"
      }
    },
    {
      "fullUrl": "https://madie.cms.gov/Condition/f1b64e32-cc14-4bec-80f8-36423bc237d6",
      "resource": {
        "resourceType": "Condition",
        "id": "f1b64e32-cc14-4bec-80f8-36423bc237d6",
        "meta": {
          "profile": [
            "http://hl7.org/fhir/us/qicore/StructureDefinition/qicore-condition"
          ]
        },
        "category": [
          {
            "coding": [
              {
                "system": "http://terminology.hl7.org/CodeSystem/condition-category",
                "code": "encounter-diagnosis",
                "display": "Encounter Diagnosis"
              }
            ]
          }
        ],
        "code": {
          "coding": [
            {
              "system": "http://hl7.org/fhir/sid/icd-10-cm",
              "version": "2023",
              "code": "F06.0",
              "display": "Mental Health Disorder",
              "userSelected": true
            }
          ]
        },
        "subject": {
          "reference": "Patient/ae631e85-e1f3-46fb-a7f9-9c017b0191e7"
        },
        "recordedDate": "2024-10-26T08:00:00.000+00:00"
      },
      "request": {
        "method": "PUT",
        "url": "Condition/f1b64e32-cc14-4bec-80f8-36423bc237d6"
      }
    },
    {
      "fullUrl": "https://madie.cms.gov/MeasureReport/d078d3e0-c721-4acd-be96-ce7a88fb934a",
      "resource": {
        "resourceType": "MeasureReport",
        "id": "d078d3e0-c721-4acd-be96-ce7a88fb934a",
        "meta": {
          "profile": [
            "http://hl7.org/fhir/us/cqfmeasures/StructureDefinition/test-case-cqfm"
          ]
        },
        "contained": [
          {
            "resourceType": "Parameters",
            "id": "406181f6-88ad-4123-8cf5-6ae8781133e4-parameters",
            "parameter": [
              {
                "name": "subject",
                "valueString": "ae631e85-e1f3-46fb-a7f9-9c017b0191e7"
              }
            ]
          }
        ],
        "extension": [
          {
            "url": "http://hl7.org/fhir/us/cqfmeasures/StructureDefinition/cqfm-inputParameters",
            "valueReference": {
              "reference": "#406181f6-88ad-4123-8cf5-6ae8781133e4-parameters"
            }
          },
          {
            "url": "http://hl7.org/fhir/us/cqfmeasures/StructureDefinition/cqfm-testCaseDescription",
            "valueMarkdown": "Risk variable of mental health disorder.\n\n"
          }
        ],
        "modifierExtension": [
          {
            "url": "http://hl7.org/fhir/us/cqfmeasures/StructureDefinition/cqfm-isTestCase",
            "valueBoolean": true
          }
        ],
        "status": "complete",
        "type": "individual",
        "measure": "https://madie.cms.gov/Measure/SevereObstetricComplicationsFHIR",
        "period": {
          "start": "2024-01-01",
          "end": "2024-12-31"
        },
        "group": [
          {
            "population": [
              {
                "code": {
                  "coding": [
                    {
                      "system": "http://terminology.hl7.org/CodeSystem/measure-population",
                      "code": "initial-population",
                      "display": "Initial Population"
                    }
                  ]
                },
                "count": 1
              },
              {
                "code": {
                  "coding": [
                    {
                      "system": "http://terminology.hl7.org/CodeSystem/measure-population",
                      "code": "denominator",
                      "display": "Denominator"
                    }
                  ]
                },
                "count": 1
              },
              {
                "code": {
                  "coding": [
                    {
                      "system": "http://terminology.hl7.org/CodeSystem/measure-population",
                      "code": "denominator-exclusion",
                      "display": "Denominator Exclusion"
                    }
                  ]
                },
                "count": 0
              },
              {
                "code": {
                  "coding": [
                    {
                      "system": "http://terminology.hl7.org/CodeSystem/measure-population",
                      "code": "numerator",
                      "display": "Numerator"
                    }
                  ]
                },
                "count": 1
              }
            ]
          }
        ],
        "evaluatedResource": [
          {
            "reference": "Patient/ae631e85-e1f3-46fb-a7f9-9c017b0191e7"
          },
          {
            "reference": "Observation/1aab58d8-23c8-49f8-b372-0f8d3f7580ac"
          },
          {
            "reference": "Observation/741ab6f6-73a8-461f-84f5-eea1412dfc3a"
          },
          {
            "reference": "Encounter/17981bc5-971d-4c1b-add8-87ffe4381c15"
          },
          {
            "reference": "Procedure/1b2537d2-b93f-4528-b834-5fe3ea9f5144"
          },
          {
            "reference": "Condition/cbf71c7e-1749-4a7a-957e-acd29206651c"
          },
          {
            "reference": "Condition/f1b64e32-cc14-4bec-80f8-36423bc237d6"
          }
        ]
      },
      "request": {
        "method": "PUT",
        "url": "MeasureReport/d078d3e0-c721-4acd-be96-ce7a88fb934a"
      }
    }
  ]
}