{
  "resourceType": "Bundle",
  "id": "2Encountersat10050",
  "type": "transaction",
  "entry": [
    {
      "fullUrl": "https://madie.cms.gov/Patient/617c001f-c464-40a2-951e-895ff298820d",
      "resource": {
        "resourceType": "Patient",
        "id": "617c001f-c464-40a2-951e-895ff298820d",
        "meta": {
          "profile": [
            "http://hl7.org/fhir/us/qicore/StructureDefinition/qicore-patient"
          ]
        },
        "text": {
          "status": "generated",
          "div": "<div xmlns=\"http://www.w3.org/1999/xhtml\"><div class=\"hapiHeaderText\">2Encountersat10050, , <b> </b></div><table class=\"hapiPropertyTable\"><tbody><tr><td>Identifier</td><td>2Encountersat10050</td></tr><tr><td>Date of birth</td><td><span>14 May 1950</span></td></tr></tbody></table></div>"
        },
        "extension": [
          {
            "url": "http://hl7.org/fhir/us/core/StructureDefinition/us-core-race",
            "extension": [
              {
                "url": "ombCategory",
                "valueCoding": {
                  "system": "urn:oid:2.16.840.1.113883.6.238",
                  "code": "2106-3",
                  "display": "White",
                  "userSelected": true
                }
              },
              {
                "url": "text",
                "valueString": "White"
              }
            ]
          },
          {
            "url": "http://hl7.org/fhir/us/core/StructureDefinition/us-core-ethnicity",
            "extension": [
              {
                "url": "ombCategory",
                "valueCoding": {
                  "system": "urn:oid:2.16.840.1.113883.6.238",
                  "code": "2186-5",
                  "display": "Not Hispanic or Latino",
                  "userSelected": true
                }
              },
              {
                "url": "text",
                "valueString": "Not Hispanic or Latino"
              }
            ]
          }
        ],
        "identifier": [
          {
            "type": {
              "coding": [
                {
                  "system": "http://terminology.hl7.org/CodeSystem/v2-0203",
                  "code": "MR"
                }
              ]
            },
            "system": "https://madie.cms.gov/",
            "value": "2Encountersat10050"
          }
        ],
        "active": true,
        "name": [
          {
            "use": "usual",
            "text": "2Encountersat10050",
            "family": "DENOMPass44",
            "given": [
              "2Encountersat10050DENOMPass44"
            ]
          }
        ],
        "gender": "male",
        "birthDate": "1950-05-14",
        "address": [
          {
            "text": "2Encountersat10050, Screened Not at risk Assessed Severely Malnourished Diagnosed Care Plan, ID=2Encountersat10050, DOB: 14 May 1950"
          }
        ]
      },
      "request": {
        "method": "PUT",
        "url": "Patient/617c001f-c464-40a2-951e-895ff298820d"
      }
    },
    {
      "fullUrl": "https://madie.cms.gov/Encounter/6a9904c9-2aa0-4edf-a28b-02f05e7635a9",
      "resource": {
        "resourceType": "Encounter",
        "id": "6a9904c9-2aa0-4edf-a28b-02f05e7635a9",
        "meta": {
          "profile": [
            "http://hl7.org/fhir/us/qicore/StructureDefinition/qicore-encounter"
          ]
        },
        "status": "finished",
        "class": {
          "system": "http://terminology.hl7.org/CodeSystem/v3-ActCode",
          "code": "IMP",
          "display": "inpatient encounter"
        },
        "type": [
          {
            "coding": [
              {
                "system": "http://snomed.info/sct",
                "code": "183452005"
              }
            ]
          }
        ],
        "subject": {
          "reference": "Patient/617c001f-c464-40a2-951e-895ff298820d"
        },
        "period": {
          "start": "2026-02-01T08:00:00.000Z",
          "end": "2026-02-07T08:15:00.000Z"
        }
      },
      "request": {
        "method": "PUT",
        "url": "Encounter/6a9904c9-2aa0-4edf-a28b-02f05e7635a9"
      }
    },
    {
      "fullUrl": "https://madie.cms.gov/Condition/76f89c75-ae10-4a6a-93b8-d79e4db14d0e",
      "resource": {
        "resourceType": "Condition",
        "id": "76f89c75-ae10-4a6a-93b8-d79e4db14d0e",
        "meta": {
          "profile": [
            "http://hl7.org/fhir/us/qicore/StructureDefinition/qicore-condition"
          ]
        },
        "clinicalStatus": {
          "coding": [
            {
              "system": "http://terminology.hl7.org/CodeSystem/condition-clinical",
              "code": "active",
              "display": "Active",
              "userSelected": true
            }
          ]
        },
        "verificationStatus": {
          "coding": [
            {
              "system": "http://terminology.hl7.org/CodeSystem/condition-ver-status",
              "code": "confirmed",
              "display": "Confirmed",
              "userSelected": true
            }
          ]
        },
        "category": [
          {
            "coding": [
              {
                "system": "http://terminology.hl7.org/CodeSystem/condition-category",
                "code": "encounter-diagnosis",
                "display": "Encounter Diagnosis",
                "userSelected": true
              }
            ]
          }
        ],
        "code": {
          "coding": [
            {
              "system": "http://snomed.info/sct",
              "code": "272588001",
              "display": "Malnutrition (calorie) (disorder)",
              "userSelected": true
            }
          ]
        },
        "subject": {
          "reference": "Patient/617c001f-c464-40a2-951e-895ff298820d"
        },
        "onsetPeriod": {
          "start": "2026-02-01T08:00:00.000+00:00"
        },
        "recordedDate": "2026-02-01T11:00:00.000+00:00"
      },
      "request": {
        "method": "PUT",
        "url": "Condition/76f89c75-ae10-4a6a-93b8-d79e4db14d0e"
      }
    },
    {
      "fullUrl": "https://madie.cms.gov/Observation/69df2693-9e53-4559-8df5-cc11e9c43a74",
      "resource": {
        "resourceType": "Observation",
        "id": "69df2693-9e53-4559-8df5-cc11e9c43a74",
        "meta": {
          "profile": [
            "http://hl7.org/fhir/us/qicore/StructureDefinition/qicore-observation"
          ]
        },
        "status": "final",
        "category": [
          {
            "coding": [
              {
                "system": "http://terminology.hl7.org/CodeSystem/observation-category",
                "code": "survey",
                "display": "Survey"
              }
            ]
          }
        ],
        "code": {
          "coding": [
            {
              "system": "http://loinc.org",
              "code": "98968-1",
              "display": "Initial Screening NRS_2002",
              "userSelected": true
            }
          ]
        },
        "subject": {
          "reference": "Patient/617c001f-c464-40a2-951e-895ff298820d"
        },
        "effectiveDateTime": "2026-02-01T09:00:00.000+00:00",
        "valueCodeableConcept": {
          "coding": [
            {
              "system": "http://snomed.info/sct",
              "code": "36823005",
              "display": "Normal diet (finding)",
              "userSelected": true
            }
          ]
        }
      },
      "request": {
        "method": "PUT",
        "url": "Observation/69df2693-9e53-4559-8df5-cc11e9c43a74"
      }
    },
    {
      "fullUrl": "https://madie.cms.gov/Observation/ada2d0ae-dcf8-45ab-a097-e1859e0969ba",
      "resource": {
        "resourceType": "Observation",
        "id": "ada2d0ae-dcf8-45ab-a097-e1859e0969ba",
        "meta": {
          "profile": [
            "http://hl7.org/fhir/us/qicore/StructureDefinition/qicore-observation"
          ]
        },
        "status": "final",
        "category": [
          {
            "coding": [
              {
                "system": "http://terminology.hl7.org/CodeSystem/observation-category",
                "code": "survey",
                "display": "Survey"
              }
            ]
          }
        ],
        "code": {
          "coding": [
            {
              "system": "http://loinc.org",
              "code": "75285-7",
              "display": "Comparative nutrition assessment standards panel",
              "userSelected": true
            }
          ]
        },
        "subject": {
          "reference": "Patient/617c001f-c464-40a2-951e-895ff298820d"
        },
        "effectiveDateTime": "2026-02-01T10:00:00.000+00:00",
        "valueCodeableConcept": {
          "coding": [
            {
              "system": "http://snomed.info/sct",
              "code": "272588001",
              "display": "Malnutrition (calorie) (disorder)",
              "userSelected": true
            }
          ]
        }
      },
      "request": {
        "method": "PUT",
        "url": "Observation/ada2d0ae-dcf8-45ab-a097-e1859e0969ba"
      }
    },
    {
      "fullUrl": "https://madie.cms.gov/Procedure/ba0c4688-0fdf-4533-b6f3-0fb7352e91a4",
      "resource": {
        "resourceType": "Procedure",
        "id": "ba0c4688-0fdf-4533-b6f3-0fb7352e91a4",
        "meta": {
          "profile": [
            "http://hl7.org/fhir/us/qicore/StructureDefinition/qicore-procedure"
          ]
        },
        "extension": [
          {
            "url": "http://hl7.org/fhir/us/qicore/StructureDefinition/qicore-recorded",
            "valueDateTime": "2026-02-01T11:30:00.000Z"
          }
        ],
        "status": "completed",
        "code": {
          "coding": [
            {
              "system": "http://snomed.info/sct",
              "code": "306354000",
              "display": "Referral to hospital-based dietitian (procedure)"
            }
          ],
          "text": "Referral to hospital-based dietitian (procedure)"
        },
        "subject": {
          "reference": "Patient/617c001f-c464-40a2-951e-895ff298820d"
        },
        "encounter": {
          "reference": "Encounter/2Encountersat10050DENOMPass44"
        },
        "performedPeriod": {
          "start": "2026-02-01T11:30:00.000Z",
          "end": "2026-02-07T08:15:00.000Z"
        }
      },
      "request": {
        "method": "PUT",
        "url": "Procedure/ba0c4688-0fdf-4533-b6f3-0fb7352e91a4"
      }
    },
    {
      "fullUrl": "https://madie.cms.gov/Procedure/2ccc74e7-d919-4096-b529-191b9e099b42",
      "resource": {
        "resourceType": "Procedure",
        "id": "2ccc74e7-d919-4096-b529-191b9e099b42",
        "meta": {
          "profile": [
            "http://hl7.org/fhir/us/qicore/StructureDefinition/qicore-procedure"
          ]
        },
        "extension": [
          {
            "url": "http://hl7.org/fhir/us/qicore/StructureDefinition/qicore-recorded",
            "valueDateTime": "2026-02-02T11:30:00.000Z"
          }
        ],
        "status": "completed",
        "code": {
          "coding": [
            {
              "system": "http://snomed.info/sct",
              "code": "386372009",
              "display": "Nutrition management (regime/therapy)"
            }
          ],
          "text": "Nutrition management (regime/therapy)"
        },
        "subject": {
          "reference": "Patient/617c001f-c464-40a2-951e-895ff298820d"
        },
        "encounter": {
          "reference": "Encounter/2Encountersat10050DENOMPass44"
        },
        "performedPeriod": {
          "start": "2026-02-01T11:30:00.000Z",
          "end": "2026-02-07T08:15:00.000Z"
        }
      },
      "request": {
        "method": "PUT",
        "url": "Procedure/2ccc74e7-d919-4096-b529-191b9e099b42"
      }
    },
    {
      "fullUrl": "https://madie.cms.gov/Coverage/25c64cef-852e-400a-888f-81c6560b063e",
      "resource": {
        "resourceType": "Coverage",
        "id": "25c64cef-852e-400a-888f-81c6560b063e",
        "meta": {
          "profile": [
            "http://hl7.org/fhir/us/qicore/StructureDefinition/qicore-coverage"
          ]
        },
        "status": "active",
        "type": {
          "coding": [
            {
              "system": "https://nahdo.org/sopt",
              "version": "9.2",
              "code": "11",
              "display": "Medicare Managed Care (Includes Medicare Advantage Plans)"
            }
          ]
        },
        "beneficiary": {
          "reference": "Patient/617c001f-c464-40a2-951e-895ff298820d"
        },
        "period": {
          "start": "2026-10-01T00:00:00+00:00"
        },
        "payor": [
          {
            "reference": "Organization/7d6e1ca7-5958-4c42-a85a-6dd1349f8bc9"
          }
        ]
      },
      "request": {
        "method": "PUT",
        "url": "Coverage/25c64cef-852e-400a-888f-81c6560b063e"
      }
    },
    {
      "fullUrl": "https://madie.cms.gov/Encounter/c598ac3e-1bfb-4fba-9ae6-84115366aa31",
      "resource": {
        "resourceType": "Encounter",
        "id": "c598ac3e-1bfb-4fba-9ae6-84115366aa31",
        "meta": {
          "profile": [
            "http://hl7.org/fhir/us/qicore/StructureDefinition/qicore-encounter"
          ]
        },
        "status": "finished",
        "class": {
          "system": "http://terminology.hl7.org/CodeSystem/v3-ActCode",
          "code": "IMP",
          "display": "inpatient encounter"
        },
        "type": [
          {
            "coding": [
              {
                "system": "http://snomed.info/sct",
                "code": "183452005"
              }
            ]
          }
        ],
        "subject": {
          "reference": "Patient/617c001f-c464-40a2-951e-895ff298820d"
        },
        "period": {
          "start": "2026-03-01T08:00:00.000Z",
          "end": "2026-03-07T08:15:00.000Z"
        }
      },
      "request": {
        "method": "PUT",
        "url": "Encounter/c598ac3e-1bfb-4fba-9ae6-84115366aa31"
      }
    },
    {
      "fullUrl": "https://madie.cms.gov/Observation/bc0cb0fd-5d58-4f93-b3a3-b5f8638bebf4",
      "resource": {
        "resourceType": "Observation",
        "id": "bc0cb0fd-5d58-4f93-b3a3-b5f8638bebf4",
        "meta": {
          "profile": [
            "http://hl7.org/fhir/us/qicore/StructureDefinition/qicore-observation"
          ]
        },
        "status": "final",
        "category": [
          {
            "coding": [
              {
                "system": "http://terminology.hl7.org/CodeSystem/observation-category",
                "code": "survey",
                "display": "Survey"
              }
            ]
          }
        ],
        "code": {
          "coding": [
            {
              "system": "http://loinc.org",
              "code": "75285-7",
              "display": "Comparative nutrition assessment standards panel",
              "userSelected": true
            }
          ]
        },
        "subject": {
          "reference": "Patient/617c001f-c464-40a2-951e-895ff298820d"
        },
        "effectiveDateTime": "2026-03-01T10:00:00.000+00:00",
        "valueCodeableConcept": {
          "coding": [
            {
              "system": "http://snomed.info/sct",
              "code": "272588001",
              "display": "Malnutrition (calorie) (disorder)",
              "userSelected": true
            }
          ]
        }
      },
      "request": {
        "method": "PUT",
        "url": "Observation/bc0cb0fd-5d58-4f93-b3a3-b5f8638bebf4"
      }
    },
    {
      "fullUrl": "https://madie.cms.gov/Procedure/591ca33a-8c51-451f-89e8-6e600aef79c1",
      "resource": {
        "resourceType": "Procedure",
        "id": "591ca33a-8c51-451f-89e8-6e600aef79c1",
        "meta": {
          "profile": [
            "http://hl7.org/fhir/us/qicore/StructureDefinition/qicore-procedure"
          ]
        },
        "extension": [
          {
            "url": "http://hl7.org/fhir/us/qicore/StructureDefinition/qicore-recorded",
            "valueDateTime": "2026-03-01T11:30:00.000Z"
          }
        ],
        "status": "completed",
        "code": {
          "coding": [
            {
              "system": "http://snomed.info/sct",
              "code": "306354000",
              "display": "Referral to hospital-based dietitian (procedure)"
            }
          ],
          "text": "Referral to hospital-based dietitian (procedure)"
        },
        "subject": {
          "reference": "Patient/617c001f-c464-40a2-951e-895ff298820d"
        },
        "encounter": {
          "reference": "Encounter/2Encountersat10050DENOMPass44"
        },
        "performedPeriod": {
          "start": "2026-03-01T11:30:00.000Z",
          "end": "2026-03-07T08:15:00.000Z"
        }
      },
      "request": {
        "method": "PUT",
        "url": "Procedure/591ca33a-8c51-451f-89e8-6e600aef79c1"
      }
    },
    {
      "fullUrl": "https://madie.cms.gov/Coverage/3ccf252c-4c50-4b74-9aad-3a88e823fb11",
      "resource": {
        "resourceType": "Coverage",
        "id": "3ccf252c-4c50-4b74-9aad-3a88e823fb11",
        "meta": {
          "profile": [
            "http://hl7.org/fhir/us/qicore/StructureDefinition/qicore-coverage"
          ]
        },
        "status": "active",
        "type": {
          "coding": [
            {
              "system": "https://nahdo.org/sopt",
              "version": "9.2",
              "code": "11",
              "display": "Medicare Managed Care (Includes Medicare Advantage Plans)"
            }
          ]
        },
        "beneficiary": {
          "reference": "Patient/617c001f-c464-40a2-951e-895ff298820d"
        },
        "period": {
          "start": "2026-10-01T00:00:00+00:00"
        },
        "payor": [
          {
            "reference": "Organization/7d6e1ca7-5958-4c42-a85a-6dd1349f8bc9"
          }
        ]
      },
      "request": {
        "method": "PUT",
        "url": "Coverage/3ccf252c-4c50-4b74-9aad-3a88e823fb11"
      }
    },
    {
      "fullUrl": "https://madie.cms.gov/Organization/7d6e1ca7-5958-4c42-a85a-6dd1349f8bc9",
      "resource": {
        "resourceType": "Organization",
        "id": "7d6e1ca7-5958-4c42-a85a-6dd1349f8bc9",
        "meta": {
          "profile": [
            "http://hl7.org/fhir/us/qicore/StructureDefinition/qicore-organization"
          ]
        },
        "identifier": [
          {
            "use": "temp",
            "system": "urn:oid:2.16.840.1.113883.4.4",
            "value": "21-3259825"
          }
        ],
        "active": true,
        "type": [
          {
            "coding": [
              {
                "system": "http://terminology.hl7.org/CodeSystem/organization-type",
                "code": "pay",
                "display": "Payer"
              }
            ]
          }
        ],
        "name": "Blue Cross Blue Shield of Texas",
        "telecom": [
          {
            "system": "phone",
            "value": "(+1) 972-766-6900"
          }
        ],
        "address": [
          {
            "use": "billing",
            "type": "postal",
            "line": [
              "P.O. Box 660044"
            ],
            "city": "Dallas",
            "state": "TX",
            "postalCode": "75266-0044",
            "country": "USA"
          }
        ]
      },
      "request": {
        "method": "PUT",
        "url": "Organization/7d6e1ca7-5958-4c42-a85a-6dd1349f8bc9"
      }
    },
    {
      "fullUrl": "https://madie.cms.gov/MeasureReport/c9b13867-bdaa-4c53-ae93-19fa54de97e9",
      "resource": {
        "resourceType": "MeasureReport",
        "id": "c9b13867-bdaa-4c53-ae93-19fa54de97e9",
        "meta": {
          "profile": [
            "http://hl7.org/fhir/us/cqfmeasures/StructureDefinition/test-case-cqfm"
          ]
        },
        "contained": [
          {
            "resourceType": "Parameters",
            "id": "c12ad1bd-ac3e-49ba-9c5b-de23efe59363-parameters",
            "parameter": [
              {
                "name": "subject",
                "valueString": "617c001f-c464-40a2-951e-895ff298820d"
              }
            ]
          }
        ],
        "extension": [
          {
            "url": "http://hl7.org/fhir/us/cqfmeasures/StructureDefinition/cqfm-inputParameters",
            "valueReference": {
              "reference": "#c12ad1bd-ac3e-49ba-9c5b-de23efe59363-parameters"
            }
          },
          {
            "url": "http://hl7.org/fhir/us/cqfmeasures/StructureDefinition/cqfm-testCaseDescription",
            "valueMarkdown": "1111 4 100 1100 4 50"
          }
        ],
        "modifierExtension": [
          {
            "url": "http://hl7.org/fhir/us/cqfmeasures/StructureDefinition/cqfm-isTestCase",
            "valueBoolean": true
          }
        ],
        "status": "complete",
        "type": "individual",
        "measure": "https://madie.cms.gov/Measure/GlobalMalnutritionCompositeFHIR",
        "period": {
          "start": "2026-01-01",
          "end": "2026-12-31"
        },
        "group": [
          {
            "population": [
              {
                "code": {
                  "coding": [
                    {
                      "system": "http://terminology.hl7.org/CodeSystem/measure-population",
                      "code": "initial-population",
                      "display": "Initial Population"
                    }
                  ]
                },
                "count": 2
              },
              {
                "code": {
                  "coding": [
                    {
                      "system": "http://terminology.hl7.org/CodeSystem/measure-population",
                      "code": "measure-population",
                      "display": "Measure Population"
                    }
                  ]
                },
                "count": 2
              },
              {
                "code": {
                  "coding": [
                    {
                      "system": "http://terminology.hl7.org/CodeSystem/measure-population",
                      "code": "measure-population-observation",
                      "display": "Measure Population Observation"
                    }
                  ]
                },
                "count": 1
              },
              {
                "code": {
                  "coding": [
                    {
                      "system": "http://terminology.hl7.org/CodeSystem/measure-population",
                      "code": "measure-population-observation",
                      "display": "Measure Population Observation"
                    }
                  ]
                },
                "count": 1
              }
            ]
          },
          {
            "population": [
              {
                "code": {
                  "coding": [
                    {
                      "system": "http://terminology.hl7.org/CodeSystem/measure-population",
                      "code": "initial-population",
                      "display": "Initial Population"
                    }
                  ]
                },
                "count": 2
              },
              {
                "code": {
                  "coding": [
                    {
                      "system": "http://terminology.hl7.org/CodeSystem/measure-population",
                      "code": "measure-population",
                      "display": "Measure Population"
                    }
                  ]
                },
                "count": 2
              },
              {
                "code": {
                  "coding": [
                    {
                      "system": "http://terminology.hl7.org/CodeSystem/measure-population",
                      "code": "measure-population-observation",
                      "display": "Measure Population Observation"
                    }
                  ]
                },
                "count": 1
              },
              {
                "code": {
                  "coding": [
                    {
                      "system": "http://terminology.hl7.org/CodeSystem/measure-population",
                      "code": "measure-population-observation",
                      "display": "Measure Population Observation"
                    }
                  ]
                },
                "count": 1
              }
            ]
          },
          {
            "population": [
              {
                "code": {
                  "coding": [
                    {
                      "system": "http://terminology.hl7.org/CodeSystem/measure-population",
                      "code": "initial-population",
                      "display": "Initial Population"
                    }
                  ]
                },
                "count": 2
              },
              {
                "code": {
                  "coding": [
                    {
                      "system": "http://terminology.hl7.org/CodeSystem/measure-population",
                      "code": "measure-population",
                      "display": "Measure Population"
                    }
                  ]
                },
                "count": 2
              },
              {
                "code": {
                  "coding": [
                    {
                      "system": "http://terminology.hl7.org/CodeSystem/measure-population",
                      "code": "measure-population-observation",
                      "display": "Measure Population Observation"
                    }
                  ]
                },
                "count": 1
              },
              {
                "code": {
                  "coding": [
                    {
                      "system": "http://terminology.hl7.org/CodeSystem/measure-population",
                      "code": "measure-population-observation",
                      "display": "Measure Population Observation"
                    }
                  ]
                },
                "count": 1
              }
            ]
          },
          {
            "population": [
              {
                "code": {
                  "coding": [
                    {
                      "system": "http://terminology.hl7.org/CodeSystem/measure-population",
                      "code": "initial-population",
                      "display": "Initial Population"
                    }
                  ]
                },
                "count": 2
              },
              {
                "code": {
                  "coding": [
                    {
                      "system": "http://terminology.hl7.org/CodeSystem/measure-population",
                      "code": "measure-population",
                      "display": "Measure Population"
                    }
                  ]
                },
                "count": 2
              },
              {
                "code": {
                  "coding": [
                    {
                      "system": "http://terminology.hl7.org/CodeSystem/measure-population",
                      "code": "measure-population-observation",
                      "display": "Measure Population Observation"
                    }
                  ]
                },
                "count": 1
              },
              {
                "code": {
                  "coding": [
                    {
                      "system": "http://terminology.hl7.org/CodeSystem/measure-population",
                      "code": "measure-population-observation",
                      "display": "Measure Population Observation"
                    }
                  ]
                },
                "count": 0
              }
            ]
          },
          {
            "population": [
              {
                "code": {
                  "coding": [
                    {
                      "system": "http://terminology.hl7.org/CodeSystem/measure-population",
                      "code": "initial-population",
                      "display": "Initial Population"
                    }
                  ]
                },
                "count": 2
              },
              {
                "code": {
                  "coding": [
                    {
                      "system": "http://terminology.hl7.org/CodeSystem/measure-population",
                      "code": "measure-population",
                      "display": "Measure Population"
                    }
                  ]
                },
                "count": 2
              },
              {
                "code": {
                  "coding": [
                    {
                      "system": "http://terminology.hl7.org/CodeSystem/measure-population",
                      "code": "measure-population-observation",
                      "display": "Measure Population Observation"
                    }
                  ]
                },
                "count": 4
              },
              {
                "code": {
                  "coding": [
                    {
                      "system": "http://terminology.hl7.org/CodeSystem/measure-population",
                      "code": "measure-population-observation",
                      "display": "Measure Population Observation"
                    }
                  ]
                },
                "count": 3
              }
            ]
          },
          {
            "population": [
              {
                "code": {
                  "coding": [
                    {
                      "system": "http://terminology.hl7.org/CodeSystem/measure-population",
                      "code": "initial-population",
                      "display": "Initial Population"
                    }
                  ]
                },
                "count": 2
              },
              {
                "code": {
                  "coding": [
                    {
                      "system": "http://terminology.hl7.org/CodeSystem/measure-population",
                      "code": "measure-population",
                      "display": "Measure Population"
                    }
                  ]
                },
                "count": 2
              },
              {
                "code": {
                  "coding": [
                    {
                      "system": "http://terminology.hl7.org/CodeSystem/measure-population",
                      "code": "measure-population-observation",
                      "display": "Measure Population Observation"
                    }
                  ]
                },
                "count": 100
              },
              {
                "code": {
                  "coding": [
                    {
                      "system": "http://terminology.hl7.org/CodeSystem/measure-population",
                      "code": "measure-population-observation",
                      "display": "Measure Population Observation"
                    }
                  ]
                },
                "count": 75
              }
            ]
          }
        ],
        "evaluatedResource": [
          {
            "reference": "Patient/617c001f-c464-40a2-951e-895ff298820d"
          },
          {
            "reference": "Encounter/6a9904c9-2aa0-4edf-a28b-02f05e7635a9"
          },
          {
            "reference": "Condition/76f89c75-ae10-4a6a-93b8-d79e4db14d0e"
          },
          {
            "reference": "Observation/69df2693-9e53-4559-8df5-cc11e9c43a74"
          },
          {
            "reference": "Observation/ada2d0ae-dcf8-45ab-a097-e1859e0969ba"
          },
          {
            "reference": "Procedure/ba0c4688-0fdf-4533-b6f3-0fb7352e91a4"
          },
          {
            "reference": "Procedure/2ccc74e7-d919-4096-b529-191b9e099b42"
          },
          {
            "reference": "Coverage/25c64cef-852e-400a-888f-81c6560b063e"
          },
          {
            "reference": "Encounter/c598ac3e-1bfb-4fba-9ae6-84115366aa31"
          },
          {
            "reference": "Observation/bc0cb0fd-5d58-4f93-b3a3-b5f8638bebf4"
          },
          {
            "reference": "Procedure/591ca33a-8c51-451f-89e8-6e600aef79c1"
          },
          {
            "reference": "Coverage/3ccf252c-4c50-4b74-9aad-3a88e823fb11"
          },
          {
            "reference": "Organization/7d6e1ca7-5958-4c42-a85a-6dd1349f8bc9"
          }
        ]
      },
      "request": {
        "method": "PUT",
        "url": "MeasureReport/c9b13867-bdaa-4c53-ae93-19fa54de97e9"
      }
    }
  ]
}