{
  "resourceType": "Bundle",
  "id": "6353045e224f3b053967124c",
  "type": "transaction",
  "entry": [
    {
      "fullUrl": "https://madie.cms.gov/Patient/9b4156ec-db0b-4475-8945-27996816e99d",
      "resource": {
        "resourceType": "Patient",
        "id": "9b4156ec-db0b-4475-8945-27996816e99d",
        "meta": {
          "profile": [
            "http://hl7.org/fhir/us/qicore/StructureDefinition/qicore-patient"
          ]
        },
        "extension": [
          {
            "url": "http://hl7.org/fhir/us/core/StructureDefinition/us-core-race",
            "extension": [
              {
                "url": "ombCategory",
                "valueCoding": {
                  "system": "urn:oid:2.16.840.1.113883.6.238",
                  "code": "1002-5",
                  "display": "American Indian or Alaska Native",
                  "userSelected": true
                }
              },
              {
                "url": "text",
                "valueString": "American Indian or Alaska Native"
              }
            ]
          },
          {
            "url": "http://hl7.org/fhir/us/core/StructureDefinition/us-core-ethnicity",
            "extension": [
              {
                "url": "ombCategory",
                "valueCoding": {
                  "system": "urn:oid:2.16.840.1.113883.6.238",
                  "code": "2135-2",
                  "display": "Hispanic or Latino",
                  "userSelected": true
                }
              },
              {
                "url": "text",
                "valueString": "Hispanic or Latino"
              }
            ]
          }
        ],
        "identifier": [
          {
            "type": {
              "coding": [
                {
                  "system": "http://terminology.hl7.org/CodeSystem/v2-0203",
                  "code": "MR"
                }
              ]
            },
            "system": "https://bonnie-fhir.healthit.gov/",
            "value": "6353045e224f3b053967124c"
          }
        ],
        "name": [
          {
            "family": "DENOMPass",
            "given": [
              "EDD24Hrs1MinB4TimeOfDel"
            ]
          }
        ],
        "gender": "female",
        "birthDate": "2004-02-01"
      },
      "request": {
        "method": "PUT",
        "url": "Patient/9b4156ec-db0b-4475-8945-27996816e99d"
      }
    },
    {
      "fullUrl": "https://madie.cms.gov/Encounter/07199404-f97e-42d6-b7fa-279714c974d7",
      "resource": {
        "resourceType": "Encounter",
        "id": "07199404-f97e-42d6-b7fa-279714c974d7",
        "meta": {
          "profile": [
            "http://hl7.org/fhir/us/qicore/StructureDefinition/qicore-encounter"
          ]
        },
        "status": "finished",
        "class": {
          "system": "http://terminology.hl7.org/CodeSystem/v3-ActCode",
          "code": "IMP",
          "display": "inpatient encounter"
        },
        "type": [
          {
            "coding": [
              {
                "system": "http://snomed.info/sct",
                "version": "2022-09",
                "code": "183452005",
                "display": "Emergency hospital admission (procedure)",
                "userSelected": true
              }
            ]
          }
        ],
        "subject": {
          "reference": "Patient/9b4156ec-db0b-4475-8945-27996816e99d"
        },
        "period": {
          "start": "2024-02-01T08:00:00.000+00:00",
          "end": "2024-02-05T08:15:00.000+00:00"
        }
      },
      "request": {
        "method": "PUT",
        "url": "Encounter/07199404-f97e-42d6-b7fa-279714c974d7"
      }
    },
    {
      "fullUrl": "https://madie.cms.gov/Procedure/135ac57a-597d-4d5c-8a38-d58c3d6b910e",
      "resource": {
        "resourceType": "Procedure",
        "id": "135ac57a-597d-4d5c-8a38-d58c3d6b910e",
        "meta": {
          "profile": [
            "http://hl7.org/fhir/us/qicore/StructureDefinition/qicore-procedure"
          ]
        },
        "extension": [
          {
            "url": "http://hl7.org/fhir/us/qicore/StructureDefinition/qicore-recorded",
            "valueDateTime": "2013-04-05T09:35:00-04:00"
          }
        ],
        "status": "completed",
        "code": {
          "coding": [
            {
              "system": "http://snomed.info/sct",
              "version": "2022-09",
              "code": "10745001",
              "display": "Delivery of transverse presentation (procedure)",
              "userSelected": true
            }
          ]
        },
        "subject": {
          "reference": "Patient/9b4156ec-db0b-4475-8945-27996816e99d"
        },
        "performedPeriod": {
          "start": "2024-02-01T08:00:00.000+00:00",
          "end": "2024-02-05T08:15:00.000+00:00"
        }
      },
      "request": {
        "method": "PUT",
        "url": "Procedure/135ac57a-597d-4d5c-8a38-d58c3d6b910e"
      }
    },
    {
      "fullUrl": "https://madie.cms.gov/Observation/303cc672-5218-458c-9477-13de007e3036",
      "resource": {
        "resourceType": "Observation",
        "id": "303cc672-5218-458c-9477-13de007e3036",
        "meta": {
          "profile": [
            "http://hl7.org/fhir/us/qicore/StructureDefinition/qicore-observation"
          ]
        },
        "status": "final",
        "category": [
          {
            "coding": [
              {
                "system": "http://terminology.hl7.org/CodeSystem/observation-category",
                "code": "exam",
                "display": "exam",
                "userSelected": true
              }
            ]
          }
        ],
        "code": {
          "coding": [
            {
              "system": "http://loinc.org",
              "code": "93857-1",
              "display": "Date and time of obstetric delivery",
              "userSelected": true
            }
          ]
        },
        "subject": {
          "reference": "Patient/9b4156ec-db0b-4475-8945-27996816e99d"
        },
        "effectiveDateTime": "2024-02-01T08:00:00.000+00:00",
        "valueDateTime": "2024-02-01T08:00:00.000+00:00"
      },
      "request": {
        "method": "PUT",
        "url": "Observation/303cc672-5218-458c-9477-13de007e3036"
      }
    },
    {
      "fullUrl": "https://madie.cms.gov/Observation/6c9ca89f-e8de-4dd0-8dda-df096b1d3e4a",
      "resource": {
        "resourceType": "Observation",
        "id": "6c9ca89f-e8de-4dd0-8dda-df096b1d3e4a",
        "meta": {
          "profile": [
            "http://hl7.org/fhir/us/qicore/StructureDefinition/qicore-observation"
          ]
        },
        "status": "final",
        "category": [
          {
            "coding": [
              {
                "system": "http://terminology.hl7.org/CodeSystem/observation-category",
                "code": "exam",
                "display": "exam",
                "userSelected": true
              }
            ]
          }
        ],
        "code": {
          "coding": [
            {
              "system": "http://loinc.org",
              "code": "11778-8",
              "display": "Delivery date Estimated",
              "userSelected": true
            }
          ]
        },
        "subject": {
          "reference": "Patient/9b4156ec-db0b-4475-8945-27996816e99d"
        },
        "effectiveDateTime": "2024-02-01T08:01:00.000+00:00",
        "valueDateTime": "2024-02-01T08:01:00.000+00:00"
      },
      "request": {
        "method": "PUT",
        "url": "Observation/6c9ca89f-e8de-4dd0-8dda-df096b1d3e4a"
      }
    },
    {
      "fullUrl": "https://madie.cms.gov/Coverage/83b71c31-cd13-4c2f-beea-bf73bff23639",
      "resource": {
        "resourceType": "Coverage",
        "id": "83b71c31-cd13-4c2f-beea-bf73bff23639",
        "meta": {
          "profile": [
            "http://hl7.org/fhir/us/qicore/StructureDefinition/qicore-coverage"
          ]
        },
        "status": "active",
        "beneficiary": {
          "reference": "Patient/9b4156ec-db0b-4475-8945-27996816e99d"
        },
        "payor": [
          {
            "reference": "Organization/67da4422-794f-48a1-a394-8e11dc431136"
          }
        ]
      },
      "request": {
        "method": "PUT",
        "url": "Coverage/83b71c31-cd13-4c2f-beea-bf73bff23639"
      }
    },
    {
      "fullUrl": "https://madie.cms.gov/Organization/67da4422-794f-48a1-a394-8e11dc431136",
      "resource": {
        "resourceType": "Organization",
        "id": "67da4422-794f-48a1-a394-8e11dc431136",
        "meta": {
          "profile": [
            "http://hl7.org/fhir/us/qicore/StructureDefinition/qicore-organization"
          ]
        },
        "identifier": [
          {
            "use": "temp",
            "system": "urn:oid:2.16.840.1.113883.4.4",
            "value": "21-3259825"
          }
        ],
        "active": true,
        "type": [
          {
            "coding": [
              {
                "system": "http://terminology.hl7.org/CodeSystem/organization-type",
                "code": "pay",
                "display": "Payer"
              }
            ]
          }
        ],
        "name": "Blue Cross Blue Shield of Texas",
        "telecom": [
          {
            "system": "phone",
            "value": "(+1) 972-766-6900"
          }
        ],
        "address": [
          {
            "use": "billing",
            "type": "postal",
            "line": [
              "P.O. Box 660044"
            ],
            "city": "Dallas",
            "state": "TX",
            "postalCode": "75266-0044",
            "country": "USA"
          }
        ]
      },
      "request": {
        "method": "PUT",
        "url": "Organization/67da4422-794f-48a1-a394-8e11dc431136"
      }
    },
    {
      "fullUrl": "https://madie.cms.gov/Practitioner/9758a9a4-212a-4f35-a772-d642d5fb5ca1",
      "resource": {
        "resourceType": "Practitioner",
        "id": "9758a9a4-212a-4f35-a772-d642d5fb5ca1",
        "identifier": [
          {
            "system": "http://hl7.org/fhir/sid/us-npi",
            "value": "123456"
          }
        ],
        "name": [
          {
            "family": "Evil",
            "prefix": [
              "Dr"
            ]
          }
        ]
      },
      "request": {
        "method": "PUT",
        "url": "Practitioner/9758a9a4-212a-4f35-a772-d642d5fb5ca1"
      }
    },
    {
      "fullUrl": "https://madie.cms.gov/MeasureReport/53351b9e-7630-4d9b-b365-b24f1b9e1f35",
      "resource": {
        "resourceType": "MeasureReport",
        "id": "53351b9e-7630-4d9b-b365-b24f1b9e1f35",
        "meta": {
          "profile": [
            "http://hl7.org/fhir/us/cqfmeasures/StructureDefinition/test-case-cqfm"
          ]
        },
        "contained": [
          {
            "resourceType": "Parameters",
            "id": "9c824904-e414-48af-ae28-238743fb46a9-parameters",
            "parameter": [
              {
                "name": "subject",
                "valueString": "9b4156ec-db0b-4475-8945-27996816e99d"
              }
            ]
          }
        ],
        "extension": [
          {
            "url": "http://hl7.org/fhir/us/cqfmeasures/StructureDefinition/cqfm-inputParameters",
            "valueReference": {
              "reference": "#9c824904-e414-48af-ae28-238743fb46a9-parameters"
            }
          },
          {
            "url": "http://hl7.org/fhir/us/cqfmeasures/StructureDefinition/cqfm-testCaseDescription",
            "valueMarkdown": "Last assessment Performed, Estimated Delivery Date, Relevant time equal to  Delivery Result Date/Time plus 1 minute"
          }
        ],
        "modifierExtension": [
          {
            "url": "http://hl7.org/fhir/us/cqfmeasures/StructureDefinition/cqfm-isTestCase",
            "valueBoolean": true
          }
        ],
        "status": "complete",
        "type": "individual",
        "measure": "https://madie.cms.gov/Measure/SevereObstetricComplicationsFHIR",
        "period": {
          "start": "2024-01-01",
          "end": "2024-12-31"
        },
        "group": [
          {
            "population": [
              {
                "code": {
                  "coding": [
                    {
                      "system": "http://terminology.hl7.org/CodeSystem/measure-population",
                      "code": "initial-population",
                      "display": "Initial Population"
                    }
                  ]
                },
                "count": 1
              },
              {
                "code": {
                  "coding": [
                    {
                      "system": "http://terminology.hl7.org/CodeSystem/measure-population",
                      "code": "denominator",
                      "display": "Denominator"
                    }
                  ]
                },
                "count": 0
              },
              {
                "code": {
                  "coding": [
                    {
                      "system": "http://terminology.hl7.org/CodeSystem/measure-population",
                      "code": "denominator-exclusion",
                      "display": "Denominator Exclusion"
                    }
                  ]
                },
                "count": 0
              },
              {
                "code": {
                  "coding": [
                    {
                      "system": "http://terminology.hl7.org/CodeSystem/measure-population",
                      "code": "numerator",
                      "display": "Numerator"
                    }
                  ]
                },
                "count": 0
              }
            ]
          }
        ],
        "evaluatedResource": [
          {
            "reference": "Patient/9b4156ec-db0b-4475-8945-27996816e99d"
          },
          {
            "reference": "Encounter/07199404-f97e-42d6-b7fa-279714c974d7"
          },
          {
            "reference": "Procedure/135ac57a-597d-4d5c-8a38-d58c3d6b910e"
          },
          {
            "reference": "Observation/303cc672-5218-458c-9477-13de007e3036"
          },
          {
            "reference": "Observation/6c9ca89f-e8de-4dd0-8dda-df096b1d3e4a"
          },
          {
            "reference": "Coverage/83b71c31-cd13-4c2f-beea-bf73bff23639"
          },
          {
            "reference": "Organization/67da4422-794f-48a1-a394-8e11dc431136"
          },
          {
            "reference": "Practitioner/9758a9a4-212a-4f35-a772-d642d5fb5ca1"
          }
        ]
      },
      "request": {
        "method": "PUT",
        "url": "MeasureReport/53351b9e-7630-4d9b-b365-b24f1b9e1f35"
      }
    }
  ]
}