{
  "resourceType": "Bundle",
  "id": "DENEXPass-HospiceEncOverlapsMP",
  "type": "transaction",
  "entry": [
    {
      "fullUrl": "https://madie.cms.gov/Patient/4afc7cda-7c8d-4d6e-a4b0-2e32020c01e8",
      "resource": {
        "resourceType": "Patient",
        "id": "4afc7cda-7c8d-4d6e-a4b0-2e32020c01e8",
        "meta": {
          "profile": [
            "http://hl7.org/fhir/us/qicore/StructureDefinition/qicore-patient"
          ]
        },
        "extension": [
          {
            "url": "http://hl7.org/fhir/us/core/StructureDefinition/us-core-race",
            "extension": [
              {
                "url": "ombCategory",
                "valueCoding": {
                  "system": "urn:oid:2.16.840.1.113883.6.238",
                  "code": "2028-9",
                  "display": "Asian"
                }
              },
              {
                "url": "text",
                "valueString": "Asian"
              }
            ]
          },
          {
            "url": "http://hl7.org/fhir/us/core/StructureDefinition/us-core-ethnicity",
            "extension": [
              {
                "url": "ombCategory",
                "valueCoding": {
                  "system": "urn:oid:2.16.840.1.113883.6.238",
                  "code": "2135-2",
                  "display": "Hispanic or Latino"
                }
              },
              {
                "url": "text",
                "valueString": "Hispanic or Latino"
              }
            ]
          }
        ],
        "identifier": [
          {
            "system": "http://hospital.smarthealthit.org",
            "value": "999999995"
          }
        ],
        "name": [
          {
            "family": "Bertha",
            "given": [
              "Betty"
            ]
          }
        ],
        "gender": "female",
        "birthDate": "2005-01-01"
      },
      "request": {
        "method": "PUT",
        "url": "Patient/4afc7cda-7c8d-4d6e-a4b0-2e32020c01e8"
      }
    },
    {
      "fullUrl": "https://madie.cms.gov/Encounter/e7a8e8d1-e23a-4a7b-9470-ccf3f7bb19f0",
      "resource": {
        "resourceType": "Encounter",
        "id": "e7a8e8d1-e23a-4a7b-9470-ccf3f7bb19f0",
        "meta": {
          "profile": [
            "http://hl7.org/fhir/us/qicore/StructureDefinition/qicore-encounter"
          ]
        },
        "status": "finished",
        "class": {
          "system": "http://terminology.hl7.org/CodeSystem/v3-ActCode",
          "code": "AMB",
          "display": "ambulatory"
        },
        "type": [
          {
            "coding": [
              {
                "system": "http://www.ada.org/cdt",
                "code": "D0120",
                "display": "periodic oral evaluation - established patient"
              }
            ]
          }
        ],
        "subject": {
          "reference": "Patient/4afc7cda-7c8d-4d6e-a4b0-2e32020c01e8"
        },
        "period": {
          "start": "2025-01-01T00:00:00.000Z",
          "end": "2025-01-01T01:15:00.000Z"
        }
      },
      "request": {
        "method": "PUT",
        "url": "Encounter/e7a8e8d1-e23a-4a7b-9470-ccf3f7bb19f0"
      }
    },
    {
      "fullUrl": "https://madie.cms.gov/Encounter/e7a8e8d1-e23a-4a7b-9470-ccf3f7bb19f0.1",
      "resource": {
        "resourceType": "Encounter",
        "id": "e7a8e8d1-e23a-4a7b-9470-ccf3f7bb19f0.1",
        "meta": {
          "profile": [
            "http://hl7.org/fhir/us/qicore/StructureDefinition/qicore-encounter"
          ]
        },
        "status": "finished",
        "class": {
          "system": "http://terminology.hl7.org/CodeSystem/v3-ActCode",
          "code": "AMB",
          "display": "ambulatory"
        },
        "type": [
          {
            "coding": [
              {
                "system": "http://snomed.info/sct",
                "code": "183921001",
                "display": "Admission to hospice for respite (procedure)"
              }
            ]
          }
        ],
        "subject": {
          "reference": "Patient/4afc7cda-7c8d-4d6e-a4b0-2e32020c01e8"
        },
        "period": {
          "start": "2024-12-31T23:59:59.000Z",
          "end": "2025-01-01T01:00:00.000Z"
        }
      },
      "request": {
        "method": "PUT",
        "url": "Encounter/e7a8e8d1-e23a-4a7b-9470-ccf3f7bb19f0.1"
      }
    },
    {
      "fullUrl": "https://madie.cms.gov/MeasureReport/65e250be-4c3a-4866-bc70-caeed1b547f6",
      "resource": {
        "resourceType": "MeasureReport",
        "id": "65e250be-4c3a-4866-bc70-caeed1b547f6",
        "meta": {
          "profile": [
            "http://hl7.org/fhir/us/cqfmeasures/StructureDefinition/test-case-cqfm"
          ]
        },
        "contained": [
          {
            "resourceType": "Parameters",
            "id": "994a9762-bf3e-459d-ab26-f50087ce64fb-parameters",
            "parameter": [
              {
                "name": "subject",
                "valueString": "4afc7cda-7c8d-4d6e-a4b0-2e32020c01e8"
              }
            ]
          }
        ],
        "extension": [
          {
            "url": "http://hl7.org/fhir/us/cqfmeasures/StructureDefinition/cqfm-inputParameters",
            "valueReference": {
              "reference": "#994a9762-bf3e-459d-ab26-f50087ce64fb-parameters"
            }
          },
          {
            "url": "http://hl7.org/fhir/us/cqfmeasures/StructureDefinition/cqfm-testCaseDescription",
            "valueMarkdown": "Hospice Encounter Overlaps - For meeting 100% coverage"
          }
        ],
        "modifierExtension": [
          {
            "url": "http://hl7.org/fhir/us/cqfmeasures/StructureDefinition/cqfm-isTestCase",
            "valueBoolean": true
          }
        ],
        "status": "complete",
        "type": "individual",
        "measure": "https://madie.cms.gov/Measure/PrimaryCariesPreventionasOfferedbyDentistsFHIR",
        "period": {
          "start": "2025-01-01",
          "end": "2025-12-31"
        },
        "group": [
          {
            "population": [
              {
                "code": {
                  "coding": [
                    {
                      "system": "http://terminology.hl7.org/CodeSystem/measure-population",
                      "code": "initial-population",
                      "display": "Initial Population"
                    }
                  ]
                },
                "count": 1
              },
              {
                "code": {
                  "coding": [
                    {
                      "system": "http://terminology.hl7.org/CodeSystem/measure-population",
                      "code": "denominator",
                      "display": "Denominator"
                    }
                  ]
                },
                "count": 1
              },
              {
                "code": {
                  "coding": [
                    {
                      "system": "http://terminology.hl7.org/CodeSystem/measure-population",
                      "code": "denominator-exclusion",
                      "display": "Denominator Exclusion"
                    }
                  ]
                },
                "count": 1
              },
              {
                "code": {
                  "coding": [
                    {
                      "system": "http://terminology.hl7.org/CodeSystem/measure-population",
                      "code": "numerator",
                      "display": "Numerator"
                    }
                  ]
                },
                "count": 0
              }
            ]
          }
        ],
        "evaluatedResource": [
          {
            "reference": "Patient/4afc7cda-7c8d-4d6e-a4b0-2e32020c01e8"
          },
          {
            "reference": "Encounter/e7a8e8d1-e23a-4a7b-9470-ccf3f7bb19f0"
          },
          {
            "reference": "Encounter/e7a8e8d1-e23a-4a7b-9470-ccf3f7bb19f0.1"
          }
        ]
      },
      "request": {
        "method": "PUT",
        "url": "MeasureReport/65e250be-4c3a-4866-bc70-caeed1b547f6"
      }
    }
  ]
}