{
  "resourceType": "Bundle",
  "id": "633b3f9e0968f80122503cd2",
  "type": "transaction",
  "entry": [
    {
      "fullUrl": "https://madie.cms.gov/Patient/dc884519-228a-4d0e-b8a9-384cb9dc1cb6",
      "resource": {
        "resourceType": "Patient",
        "id": "dc884519-228a-4d0e-b8a9-384cb9dc1cb6",
        "meta": {
          "profile": [
            "http://hl7.org/fhir/us/qicore/StructureDefinition/qicore-patient"
          ]
        },
        "text": {
          "status": "generated",
          "div": "<div xmlns=\"http://www.w3.org/1999/xhtml\"><div class=\"hapiHeaderText\">LastAssPrfDELRsltDtTime_AftIPEnd <b>DENOMPASS </b></div><table class=\"hapiPropertyTable\"><tbody><tr><td>Date of birth</td><td><span>01 February 2004</span></td></tr></tbody></table></div>"
        },
        "extension": [
          {
            "url": "http://hl7.org/fhir/us/core/StructureDefinition/us-core-race",
            "extension": [
              {
                "url": "ombCategory",
                "valueCoding": {
                  "system": "urn:oid:2.16.840.1.113883.6.238",
                  "code": "1002-5",
                  "display": "American Indian or Alaska Native",
                  "userSelected": true
                }
              },
              {
                "url": "text",
                "valueString": "American Indian or Alaska Native"
              }
            ]
          },
          {
            "url": "http://hl7.org/fhir/us/core/StructureDefinition/us-core-ethnicity",
            "extension": [
              {
                "url": "ombCategory",
                "valueCoding": {
                  "system": "urn:oid:2.16.840.1.113883.6.238",
                  "code": "2135-2",
                  "display": "Hispanic or Latino",
                  "userSelected": true
                }
              },
              {
                "url": "text",
                "valueString": "Hispanic or Latino"
              }
            ]
          }
        ],
        "identifier": [
          {
            "type": {
              "coding": [
                {
                  "system": "http://terminology.hl7.org/CodeSystem/v2-0203",
                  "code": "MR"
                }
              ]
            },
            "system": "https://bonnie-fhir.healthit.gov/",
            "value": "633b3f9e0968f80122503cd2"
          }
        ],
        "active": true,
        "name": [
          {
            "use": "usual",
            "family": "DENOMPass",
            "given": [
              "LastAssPrfDELRsltDtTime_AftIPEnd"
            ]
          }
        ],
        "gender": "female",
        "birthDate": "2004-02-01"
      },
      "request": {
        "method": "PUT",
        "url": "Patient/dc884519-228a-4d0e-b8a9-384cb9dc1cb6"
      }
    },
    {
      "fullUrl": "https://madie.cms.gov/Observation/8a771240-79bf-42fc-88a4-017a752f09aa",
      "resource": {
        "resourceType": "Observation",
        "id": "8a771240-79bf-42fc-88a4-017a752f09aa",
        "meta": {
          "profile": [
            "http://hl7.org/fhir/us/qicore/StructureDefinition/qicore-observation"
          ]
        },
        "status": "final",
        "category": [
          {
            "coding": [
              {
                "system": "http://terminology.hl7.org/CodeSystem/observation-category",
                "code": "exam",
                "display": "exam",
                "userSelected": true
              }
            ]
          }
        ],
        "code": {
          "coding": [
            {
              "system": "http://loinc.org",
              "code": "93857-1"
            }
          ]
        },
        "subject": {
          "reference": "Patient/dc884519-228a-4d0e-b8a9-384cb9dc1cb6"
        },
        "effectiveDateTime": "2024-02-01T08:00:00.000+00:00",
        "valueDateTime": "2024-02-05T08:15:00+00:00"
      },
      "request": {
        "method": "PUT",
        "url": "Observation/8a771240-79bf-42fc-88a4-017a752f09aa"
      }
    },
    {
      "fullUrl": "https://madie.cms.gov/Observation/70774f09-dff7-4da5-b08e-fdf7fa2658e1",
      "resource": {
        "resourceType": "Observation",
        "id": "70774f09-dff7-4da5-b08e-fdf7fa2658e1",
        "meta": {
          "profile": [
            "http://hl7.org/fhir/us/qicore/StructureDefinition/qicore-observation"
          ]
        },
        "status": "final",
        "category": [
          {
            "coding": [
              {
                "system": "http://terminology.hl7.org/CodeSystem/observation-category",
                "code": "exam",
                "display": "exam",
                "userSelected": true
              }
            ]
          }
        ],
        "code": {
          "coding": [
            {
              "system": "http://loinc.org",
              "code": "11778-8"
            }
          ]
        },
        "subject": {
          "reference": "Patient/dc884519-228a-4d0e-b8a9-384cb9dc1cb6"
        },
        "effectiveDateTime": "2024-02-05T08:00:00.000+00:00",
        "valueDateTime": "2024-02-01T08:00:00.000+00:00"
      },
      "request": {
        "method": "PUT",
        "url": "Observation/70774f09-dff7-4da5-b08e-fdf7fa2658e1"
      }
    },
    {
      "fullUrl": "https://madie.cms.gov/Observation/76bcf7f8-af41-477a-aaa2-822d303e03d2",
      "resource": {
        "resourceType": "Observation",
        "id": "76bcf7f8-af41-477a-aaa2-822d303e03d2",
        "meta": {
          "profile": [
            "http://hl7.org/fhir/us/qicore/StructureDefinition/qicore-observation"
          ]
        },
        "status": "final",
        "category": [
          {
            "coding": [
              {
                "system": "http://terminology.hl7.org/CodeSystem/observation-category",
                "code": "exam",
                "display": "exam",
                "userSelected": true
              }
            ]
          }
        ],
        "code": {
          "coding": [
            {
              "system": "http://loinc.org",
              "code": "93857-1"
            }
          ]
        },
        "subject": {
          "reference": "Patient/dc884519-228a-4d0e-b8a9-384cb9dc1cb6"
        },
        "effectiveDateTime": "2024-02-01T08:00:00.000+00:00",
        "valueDateTime": "2024-08-05T08:00:00+00:00"
      },
      "request": {
        "method": "PUT",
        "url": "Observation/76bcf7f8-af41-477a-aaa2-822d303e03d2"
      }
    },
    {
      "fullUrl": "https://madie.cms.gov/Encounter/fd0c4e6d-093c-4049-8b1f-f17df1d8b4cd",
      "resource": {
        "resourceType": "Encounter",
        "id": "fd0c4e6d-093c-4049-8b1f-f17df1d8b4cd",
        "meta": {
          "profile": [
            "http://hl7.org/fhir/us/qicore/StructureDefinition/qicore-encounter"
          ]
        },
        "status": "finished",
        "class": {
          "system": "http://terminology.hl7.org/CodeSystem/v3-ActCode",
          "code": "IMP",
          "display": "inpatient encounter"
        },
        "type": [
          {
            "coding": [
              {
                "system": "http://snomed.info/sct",
                "code": "183452005"
              }
            ]
          }
        ],
        "subject": {
          "reference": "Patient/dc884519-228a-4d0e-b8a9-384cb9dc1cb6"
        },
        "period": {
          "start": "2024-02-01T08:00:00.000Z",
          "end": "2024-02-05T08:15:00.000Z"
        }
      },
      "request": {
        "method": "PUT",
        "url": "Encounter/fd0c4e6d-093c-4049-8b1f-f17df1d8b4cd"
      }
    },
    {
      "fullUrl": "https://madie.cms.gov/Procedure/1f2ff488-05f7-40f8-862a-b755322a204d",
      "resource": {
        "resourceType": "Procedure",
        "id": "1f2ff488-05f7-40f8-862a-b755322a204d",
        "meta": {
          "profile": [
            "http://hl7.org/fhir/us/qicore/StructureDefinition/qicore-procedure"
          ]
        },
        "extension": [
          {
            "url": "http://hl7.org/fhir/us/qicore/StructureDefinition/qicore-recorded",
            "valueDateTime": "2013-04-05T09:35:00-04:00"
          }
        ],
        "status": "completed",
        "code": {
          "coding": [
            {
              "system": "http://snomed.info/sct",
              "code": "10745001"
            }
          ]
        },
        "subject": {
          "reference": "Patient/dc884519-228a-4d0e-b8a9-384cb9dc1cb6"
        },
        "performedPeriod": {
          "start": "2024-02-01T08:00:00.000Z",
          "end": "2024-02-05T08:15:00.000Z"
        }
      },
      "request": {
        "method": "PUT",
        "url": "Procedure/1f2ff488-05f7-40f8-862a-b755322a204d"
      }
    },
    {
      "fullUrl": "https://madie.cms.gov/Coverage/f0be6182-85b3-41a5-91d7-f24e6f31e572",
      "resource": {
        "resourceType": "Coverage",
        "id": "f0be6182-85b3-41a5-91d7-f24e6f31e572",
        "meta": {
          "profile": [
            "http://hl7.org/fhir/us/qicore/StructureDefinition/qicore-coverage"
          ]
        },
        "status": "active",
        "beneficiary": {
          "reference": "Patient/dc884519-228a-4d0e-b8a9-384cb9dc1cb6"
        },
        "payor": [
          {
            "reference": "Organization/6edbe381-23bc-4912-a215-a0c515ea4a89"
          }
        ]
      },
      "request": {
        "method": "PUT",
        "url": "Coverage/f0be6182-85b3-41a5-91d7-f24e6f31e572"
      }
    },
    {
      "fullUrl": "https://madie.cms.gov/Organization/6edbe381-23bc-4912-a215-a0c515ea4a89",
      "resource": {
        "resourceType": "Organization",
        "id": "6edbe381-23bc-4912-a215-a0c515ea4a89",
        "meta": {
          "profile": [
            "http://hl7.org/fhir/us/qicore/StructureDefinition/qicore-organization"
          ]
        },
        "identifier": [
          {
            "use": "temp",
            "system": "urn:oid:2.16.840.1.113883.4.4",
            "value": "21-3259825"
          }
        ],
        "active": true,
        "type": [
          {
            "coding": [
              {
                "system": "http://terminology.hl7.org/CodeSystem/organization-type",
                "code": "pay",
                "display": "Payer"
              }
            ]
          }
        ],
        "name": "Blue Cross Blue Shield of Texas",
        "telecom": [
          {
            "system": "phone",
            "value": "(+1) 972-766-6900"
          }
        ],
        "address": [
          {
            "use": "billing",
            "type": "postal",
            "line": [
              "P.O. Box 660044"
            ],
            "city": "Dallas",
            "state": "TX",
            "postalCode": "75266-0044",
            "country": "USA"
          }
        ]
      },
      "request": {
        "method": "PUT",
        "url": "Organization/6edbe381-23bc-4912-a215-a0c515ea4a89"
      }
    },
    {
      "fullUrl": "https://madie.cms.gov/Practitioner/65f9d287-669a-4636-9edb-72cbb3aa44cf",
      "resource": {
        "resourceType": "Practitioner",
        "id": "65f9d287-669a-4636-9edb-72cbb3aa44cf",
        "identifier": [
          {
            "system": "http://hl7.org/fhir/sid/us-npi",
            "value": "123456"
          }
        ],
        "name": [
          {
            "family": "Evil",
            "prefix": [
              "Dr"
            ]
          }
        ]
      },
      "request": {
        "method": "PUT",
        "url": "Practitioner/65f9d287-669a-4636-9edb-72cbb3aa44cf"
      }
    },
    {
      "fullUrl": "https://madie.cms.gov/MeasureReport/a2bdc776-d314-422d-b5e9-4691de9f5cfb",
      "resource": {
        "resourceType": "MeasureReport",
        "id": "a2bdc776-d314-422d-b5e9-4691de9f5cfb",
        "meta": {
          "profile": [
            "http://hl7.org/fhir/us/cqfmeasures/StructureDefinition/test-case-cqfm"
          ]
        },
        "contained": [
          {
            "resourceType": "Parameters",
            "id": "ee882d20-dc54-48a1-b3d0-5c08b114499a-parameters",
            "parameter": [
              {
                "name": "subject",
                "valueString": "dc884519-228a-4d0e-b8a9-384cb9dc1cb6"
              }
            ]
          }
        ],
        "extension": [
          {
            "url": "http://hl7.org/fhir/us/cqfmeasures/StructureDefinition/cqfm-inputParameters",
            "valueReference": {
              "reference": "#ee882d20-dc54-48a1-b3d0-5c08b114499a-parameters"
            }
          },
          {
            "url": "http://hl7.org/fhir/us/cqfmeasures/StructureDefinition/cqfm-testCaseDescription",
            "valueMarkdown": "2 Time of Delivery assessments.  1st one is during the encounter.  The 2nd one is after the encounter.  1st:  Result date/Time of delivery (based on assessment performed) is equal to encounter end. 2nd:  Result date/time after encounter.\n"
          }
        ],
        "modifierExtension": [
          {
            "url": "http://hl7.org/fhir/us/cqfmeasures/StructureDefinition/cqfm-isTestCase",
            "valueBoolean": true
          }
        ],
        "status": "complete",
        "type": "individual",
        "measure": "https://madie.cms.gov/Measure/SevereObstetricComplicationsFHIR",
        "period": {
          "start": "2024-01-01",
          "end": "2024-12-31"
        },
        "group": [
          {
            "population": [
              {
                "code": {
                  "coding": [
                    {
                      "system": "http://terminology.hl7.org/CodeSystem/measure-population",
                      "code": "initial-population",
                      "display": "Initial Population"
                    }
                  ]
                },
                "count": 1
              },
              {
                "code": {
                  "coding": [
                    {
                      "system": "http://terminology.hl7.org/CodeSystem/measure-population",
                      "code": "denominator",
                      "display": "Denominator"
                    }
                  ]
                },
                "count": 1
              },
              {
                "code": {
                  "coding": [
                    {
                      "system": "http://terminology.hl7.org/CodeSystem/measure-population",
                      "code": "denominator-exclusion",
                      "display": "Denominator Exclusion"
                    }
                  ]
                },
                "count": 0
              },
              {
                "code": {
                  "coding": [
                    {
                      "system": "http://terminology.hl7.org/CodeSystem/measure-population",
                      "code": "numerator",
                      "display": "Numerator"
                    }
                  ]
                },
                "count": 0
              }
            ]
          }
        ],
        "evaluatedResource": [
          {
            "reference": "Patient/dc884519-228a-4d0e-b8a9-384cb9dc1cb6"
          },
          {
            "reference": "Observation/8a771240-79bf-42fc-88a4-017a752f09aa"
          },
          {
            "reference": "Observation/70774f09-dff7-4da5-b08e-fdf7fa2658e1"
          },
          {
            "reference": "Observation/76bcf7f8-af41-477a-aaa2-822d303e03d2"
          },
          {
            "reference": "Encounter/fd0c4e6d-093c-4049-8b1f-f17df1d8b4cd"
          },
          {
            "reference": "Procedure/1f2ff488-05f7-40f8-862a-b755322a204d"
          },
          {
            "reference": "Coverage/f0be6182-85b3-41a5-91d7-f24e6f31e572"
          },
          {
            "reference": "Organization/6edbe381-23bc-4912-a215-a0c515ea4a89"
          },
          {
            "reference": "Practitioner/65f9d287-669a-4636-9edb-72cbb3aa44cf"
          }
        ]
      },
      "request": {
        "method": "PUT",
        "url": "MeasureReport/a2bdc776-d314-422d-b5e9-4691de9f5cfb"
      }
    }
  ]
}