{
  "resourceType": "Bundle",
  "id": "633b3fa00968f80122503d21",
  "type": "transaction",
  "entry": [
    {
      "fullUrl": "https://madie.cms.gov/Patient/22541dc3-b822-4043-8d08-5260ca0b1132",
      "resource": {
        "resourceType": "Patient",
        "id": "22541dc3-b822-4043-8d08-5260ca0b1132",
        "meta": {
          "profile": [
            "http://hl7.org/fhir/us/qicore/StructureDefinition/qicore-patient"
          ]
        },
        "text": {
          "status": "generated",
          "div": "<div xmlns=\"http://www.w3.org/1999/xhtml\"><div class=\"hapiHeaderText\">LastAssPrfEstDELRelvTm2DaysB4DELRsltDtTime <b>DENOMPASS </b></div><table class=\"hapiPropertyTable\"><tbody><tr><td>Date of birth</td><td><span>01 February 1958</span></td></tr></tbody></table></div>"
        },
        "extension": [
          {
            "url": "http://hl7.org/fhir/us/core/StructureDefinition/us-core-race",
            "extension": [
              {
                "url": "ombCategory",
                "valueCoding": {
                  "system": "urn:oid:2.16.840.1.113883.6.238",
                  "code": "1002-5",
                  "display": "American Indian or Alaska Native",
                  "userSelected": true
                }
              },
              {
                "url": "text",
                "valueString": "American Indian or Alaska Native"
              }
            ]
          },
          {
            "url": "http://hl7.org/fhir/us/core/StructureDefinition/us-core-ethnicity",
            "extension": [
              {
                "url": "ombCategory",
                "valueCoding": {
                  "system": "urn:oid:2.16.840.1.113883.6.238",
                  "code": "2135-2",
                  "display": "Hispanic or Latino",
                  "userSelected": true
                }
              },
              {
                "url": "text",
                "valueString": "Hispanic or Latino"
              }
            ]
          }
        ],
        "identifier": [
          {
            "type": {
              "coding": [
                {
                  "system": "http://terminology.hl7.org/CodeSystem/v2-0203",
                  "code": "MR"
                }
              ]
            },
            "system": "https://bonnie-fhir.healthit.gov/",
            "value": "633b3fa00968f80122503d21"
          }
        ],
        "active": true,
        "name": [
          {
            "use": "usual",
            "family": "DENOMPass",
            "given": [
              "LastAssPrfEstDELRelvTm2DaysB4DELRsltDtTime "
            ]
          }
        ],
        "gender": "female",
        "birthDate": "1970-02-01"
      },
      "request": {
        "method": "PUT",
        "url": "Patient/22541dc3-b822-4043-8d08-5260ca0b1132"
      }
    },
    {
      "fullUrl": "https://madie.cms.gov/Observation/19dc69d4-a387-420c-816d-319287cc78ed",
      "resource": {
        "resourceType": "Observation",
        "id": "19dc69d4-a387-420c-816d-319287cc78ed",
        "meta": {
          "profile": [
            "http://hl7.org/fhir/us/qicore/StructureDefinition/qicore-observation"
          ]
        },
        "status": "final",
        "category": [
          {
            "coding": [
              {
                "system": "http://terminology.hl7.org/CodeSystem/observation-category",
                "code": "exam",
                "display": "exam",
                "userSelected": true
              }
            ]
          }
        ],
        "code": {
          "coding": [
            {
              "system": "http://loinc.org",
              "code": "93857-1"
            }
          ]
        },
        "subject": {
          "reference": "Patient/22541dc3-b822-4043-8d08-5260ca0b1132"
        },
        "effectiveDateTime": "2024-02-01T08:00:00.000+00:00",
        "valueDateTime": "2024-02-01T08:00:00+00:00"
      },
      "request": {
        "method": "PUT",
        "url": "Observation/19dc69d4-a387-420c-816d-319287cc78ed"
      }
    },
    {
      "fullUrl": "https://madie.cms.gov/Observation/2cec4997-e01c-47c7-a8fc-96d5eec2db48",
      "resource": {
        "resourceType": "Observation",
        "id": "2cec4997-e01c-47c7-a8fc-96d5eec2db48",
        "meta": {
          "profile": [
            "http://hl7.org/fhir/us/qicore/StructureDefinition/qicore-observation"
          ]
        },
        "status": "final",
        "category": [
          {
            "coding": [
              {
                "system": "http://terminology.hl7.org/CodeSystem/observation-category",
                "code": "exam",
                "display": "exam",
                "userSelected": true
              }
            ]
          }
        ],
        "code": {
          "coding": [
            {
              "system": "http://loinc.org",
              "code": "11778-8"
            }
          ]
        },
        "subject": {
          "reference": "Patient/22541dc3-b822-4043-8d08-5260ca0b1132"
        },
        "effectiveDateTime": "2024-01-30T08:00:00.000+00:00",
        "valueDateTime": "2024-02-01T08:00:00.000+00:00"
      },
      "request": {
        "method": "PUT",
        "url": "Observation/2cec4997-e01c-47c7-a8fc-96d5eec2db48"
      }
    },
    {
      "fullUrl": "https://madie.cms.gov/Encounter/bbb405ba-681b-4cb6-b1c8-cc13e71ecff4",
      "resource": {
        "resourceType": "Encounter",
        "id": "bbb405ba-681b-4cb6-b1c8-cc13e71ecff4",
        "meta": {
          "profile": [
            "http://hl7.org/fhir/us/qicore/StructureDefinition/qicore-encounter"
          ]
        },
        "status": "finished",
        "class": {
          "system": "http://terminology.hl7.org/CodeSystem/v3-ActCode",
          "code": "IMP",
          "display": "inpatient encounter"
        },
        "type": [
          {
            "coding": [
              {
                "system": "http://snomed.info/sct",
                "code": "183452005"
              }
            ]
          }
        ],
        "subject": {
          "reference": "Patient/22541dc3-b822-4043-8d08-5260ca0b1132"
        },
        "period": {
          "start": "2024-01-30T08:00:00.000Z",
          "end": "2024-02-05T08:15:00.000Z"
        }
      },
      "request": {
        "method": "PUT",
        "url": "Encounter/bbb405ba-681b-4cb6-b1c8-cc13e71ecff4"
      }
    },
    {
      "fullUrl": "https://madie.cms.gov/Procedure/18c84a28-d049-4107-9170-13e83c791ef6",
      "resource": {
        "resourceType": "Procedure",
        "id": "18c84a28-d049-4107-9170-13e83c791ef6",
        "meta": {
          "profile": [
            "http://hl7.org/fhir/us/qicore/StructureDefinition/qicore-procedure"
          ]
        },
        "extension": [
          {
            "url": "http://hl7.org/fhir/us/qicore/StructureDefinition/qicore-recorded",
            "valueDateTime": "2013-04-05T09:35:00-04:00"
          }
        ],
        "status": "completed",
        "code": {
          "coding": [
            {
              "system": "http://snomed.info/sct",
              "code": "10745001"
            }
          ]
        },
        "subject": {
          "reference": "Patient/22541dc3-b822-4043-8d08-5260ca0b1132"
        },
        "performedPeriod": {
          "start": "2024-02-01T08:00:00.000Z",
          "end": "2024-02-05T08:15:00.000Z"
        }
      },
      "request": {
        "method": "PUT",
        "url": "Procedure/18c84a28-d049-4107-9170-13e83c791ef6"
      }
    },
    {
      "fullUrl": "https://madie.cms.gov/Coverage/c09b2ca2-6f86-42a4-82e8-4abb1328aac9",
      "resource": {
        "resourceType": "Coverage",
        "id": "c09b2ca2-6f86-42a4-82e8-4abb1328aac9",
        "meta": {
          "profile": [
            "http://hl7.org/fhir/us/qicore/StructureDefinition/qicore-coverage"
          ]
        },
        "status": "active",
        "beneficiary": {
          "reference": "Patient/22541dc3-b822-4043-8d08-5260ca0b1132"
        },
        "payor": [
          {
            "reference": "Organization/352f01f4-5cf7-445c-ba02-79c53a6fb6f5"
          }
        ]
      },
      "request": {
        "method": "PUT",
        "url": "Coverage/c09b2ca2-6f86-42a4-82e8-4abb1328aac9"
      }
    },
    {
      "fullUrl": "https://madie.cms.gov/Organization/352f01f4-5cf7-445c-ba02-79c53a6fb6f5",
      "resource": {
        "resourceType": "Organization",
        "id": "352f01f4-5cf7-445c-ba02-79c53a6fb6f5",
        "meta": {
          "profile": [
            "http://hl7.org/fhir/us/qicore/StructureDefinition/qicore-organization"
          ]
        },
        "identifier": [
          {
            "use": "temp",
            "system": "urn:oid:2.16.840.1.113883.4.4",
            "value": "21-3259825"
          }
        ],
        "active": true,
        "type": [
          {
            "coding": [
              {
                "system": "http://terminology.hl7.org/CodeSystem/organization-type",
                "code": "pay",
                "display": "Payer"
              }
            ]
          }
        ],
        "name": "Blue Cross Blue Shield of Texas",
        "telecom": [
          {
            "system": "phone",
            "value": "(+1) 972-766-6900"
          }
        ],
        "address": [
          {
            "use": "billing",
            "type": "postal",
            "line": [
              "P.O. Box 660044"
            ],
            "city": "Dallas",
            "state": "TX",
            "postalCode": "75266-0044",
            "country": "USA"
          }
        ]
      },
      "request": {
        "method": "PUT",
        "url": "Organization/352f01f4-5cf7-445c-ba02-79c53a6fb6f5"
      }
    },
    {
      "fullUrl": "https://madie.cms.gov/Practitioner/914c2273-1aee-4474-8685-255b66238bff",
      "resource": {
        "resourceType": "Practitioner",
        "id": "914c2273-1aee-4474-8685-255b66238bff",
        "identifier": [
          {
            "system": "http://hl7.org/fhir/sid/us-npi",
            "value": "123456"
          }
        ],
        "name": [
          {
            "family": "Evil",
            "prefix": [
              "Dr"
            ]
          }
        ]
      },
      "request": {
        "method": "PUT",
        "url": "Practitioner/914c2273-1aee-4474-8685-255b66238bff"
      }
    },
    {
      "fullUrl": "https://madie.cms.gov/MeasureReport/2db94eb3-9e44-4677-af7d-6b428249be7c",
      "resource": {
        "resourceType": "MeasureReport",
        "id": "2db94eb3-9e44-4677-af7d-6b428249be7c",
        "meta": {
          "profile": [
            "http://hl7.org/fhir/us/cqfmeasures/StructureDefinition/test-case-cqfm"
          ]
        },
        "contained": [
          {
            "resourceType": "Parameters",
            "id": "066c9454-967b-41f7-94fa-4e3e9f4dcb48-parameters",
            "parameter": [
              {
                "name": "subject",
                "valueString": "22541dc3-b822-4043-8d08-5260ca0b1132"
              }
            ]
          }
        ],
        "extension": [
          {
            "url": "http://hl7.org/fhir/us/cqfmeasures/StructureDefinition/cqfm-inputParameters",
            "valueReference": {
              "reference": "#066c9454-967b-41f7-94fa-4e3e9f4dcb48-parameters"
            }
          },
          {
            "url": "http://hl7.org/fhir/us/cqfmeasures/StructureDefinition/cqfm-testCaseDescription",
            "valueMarkdown": "Last assessment Performed, Estimated Delivery Date, Relevant time, 2 days before Delivery Result Date/Time\n"
          }
        ],
        "modifierExtension": [
          {
            "url": "http://hl7.org/fhir/us/cqfmeasures/StructureDefinition/cqfm-isTestCase",
            "valueBoolean": true
          }
        ],
        "status": "complete",
        "type": "individual",
        "measure": "https://madie.cms.gov/Measure/SevereObstetricComplicationsFHIR",
        "period": {
          "start": "2024-01-01",
          "end": "2024-12-31"
        },
        "group": [
          {
            "population": [
              {
                "code": {
                  "coding": [
                    {
                      "system": "http://terminology.hl7.org/CodeSystem/measure-population",
                      "code": "initial-population",
                      "display": "Initial Population"
                    }
                  ]
                },
                "count": 1
              },
              {
                "code": {
                  "coding": [
                    {
                      "system": "http://terminology.hl7.org/CodeSystem/measure-population",
                      "code": "denominator",
                      "display": "Denominator"
                    }
                  ]
                },
                "count": 1
              },
              {
                "code": {
                  "coding": [
                    {
                      "system": "http://terminology.hl7.org/CodeSystem/measure-population",
                      "code": "denominator-exclusion",
                      "display": "Denominator Exclusion"
                    }
                  ]
                },
                "count": 0
              },
              {
                "code": {
                  "coding": [
                    {
                      "system": "http://terminology.hl7.org/CodeSystem/measure-population",
                      "code": "numerator",
                      "display": "Numerator"
                    }
                  ]
                },
                "count": 0
              }
            ]
          }
        ],
        "evaluatedResource": [
          {
            "reference": "Patient/22541dc3-b822-4043-8d08-5260ca0b1132"
          },
          {
            "reference": "Observation/19dc69d4-a387-420c-816d-319287cc78ed"
          },
          {
            "reference": "Observation/2cec4997-e01c-47c7-a8fc-96d5eec2db48"
          },
          {
            "reference": "Encounter/bbb405ba-681b-4cb6-b1c8-cc13e71ecff4"
          },
          {
            "reference": "Procedure/18c84a28-d049-4107-9170-13e83c791ef6"
          },
          {
            "reference": "Coverage/c09b2ca2-6f86-42a4-82e8-4abb1328aac9"
          },
          {
            "reference": "Organization/352f01f4-5cf7-445c-ba02-79c53a6fb6f5"
          },
          {
            "reference": "Practitioner/914c2273-1aee-4474-8685-255b66238bff"
          }
        ]
      },
      "request": {
        "method": "PUT",
        "url": "MeasureReport/2db94eb3-9e44-4677-af7d-6b428249be7c"
      }
    }
  ]
}