{
  "resourceType": "Bundle",
  "id": "6129133702c62a011f2e66b1",
  "type": "transaction",
  "entry": [
    {
      "fullUrl": "https://madie.cms.gov/Patient/c1c9ffa9-0743-4589-b99d-2d81776180d5",
      "resource": {
        "resourceType": "Patient",
        "id": "c1c9ffa9-0743-4589-b99d-2d81776180d5",
        "meta": {
          "profile": [
            "http://hl7.org/fhir/us/qicore/StructureDefinition/qicore-patient"
          ]
        },
        "text": {
          "status": "generated",
          "div": "<div xmlns=\"http://www.w3.org/1999/xhtml\"><div class=\"hapiHeaderText\">age_eq18 <b>IPPASS </b></div><table class=\"hapiPropertyTable\"><tbody><tr><td>Identifier</td><td>863343be4401c0595cb63d1a10a15d35</td></tr><tr><td>Date of birth</td><td><span>31 May 1994</span></td></tr></tbody></table></div>"
        },
        "extension": [
          {
            "url": "http://hl7.org/fhir/us/core/StructureDefinition/us-core-race",
            "extension": [
              {
                "url": "ombCategory",
                "valueCoding": {
                  "system": "urn:oid:2.16.840.1.113883.6.238",
                  "code": "1002-5",
                  "display": "American Indian or Alaska Native",
                  "userSelected": true
                }
              },
              {
                "url": "text",
                "valueString": "American Indian or Alaska Native"
              }
            ]
          },
          {
            "url": "http://hl7.org/fhir/us/core/StructureDefinition/us-core-ethnicity",
            "extension": [
              {
                "url": "ombCategory",
                "valueCoding": {
                  "system": "urn:oid:2.16.840.1.113883.6.238",
                  "code": "2135-2",
                  "display": "Hispanic or Latino",
                  "userSelected": true
                }
              },
              {
                "url": "text",
                "valueString": "Hispanic or Latino"
              }
            ]
          }
        ],
        "identifier": [
          {
            "type": {
              "coding": [
                {
                  "system": "http://terminology.hl7.org/CodeSystem/v2-0203",
                  "code": "MR"
                }
              ]
            },
            "system": "https://bonnie-fhir.healthit.gov/",
            "value": "6129133702c62a011f2e66b1"
          }
        ],
        "active": true,
        "name": [
          {
            "use": "usual",
            "family": "IPPass",
            "given": [
              "age_eq18"
            ]
          }
        ],
        "gender": "male",
        "birthDate": "2006-05-31"
      },
      "request": {
        "method": "PUT",
        "url": "Patient/c1c9ffa9-0743-4589-b99d-2d81776180d5"
      }
    },
    {
      "fullUrl": "https://madie.cms.gov/Encounter/b9a07332-5cfb-4fe4-8e31-68fff7720327",
      "resource": {
        "resourceType": "Encounter",
        "id": "b9a07332-5cfb-4fe4-8e31-68fff7720327",
        "meta": {
          "profile": [
            "http://hl7.org/fhir/us/qicore/StructureDefinition/qicore-encounter"
          ]
        },
        "status": "finished",
        "class": {
          "system": "http://terminology.hl7.org/CodeSystem/v3-ActCode",
          "code": "IMP",
          "display": "inpatient encounter",
          "userSelected": true
        },
        "type": [
          {
            "coding": [
              {
                "system": "http://snomed.info/sct",
                "code": "32485007"
              }
            ]
          }
        ],
        "subject": {
          "reference": "Patient/c1c9ffa9-0743-4589-b99d-2d81776180d5"
        },
        "period": {
          "start": "2025-06-15T09:30:00.000+00:00",
          "end": "2025-10-12T10:30:00.000+00:00"
        },
        "length": {
          "value": 119,
          "unit": "days"
        },
        "diagnosis": [
          {
            "condition": {
              "reference": "Condition/32dd0a00-d309-452b-96e7-deb42f3c09b4"
            },
            "use": {
              "coding": [
                {
                  "system": "http://terminology.hl7.org/CodeSystem/diagnosis-role",
                  "code": "billing",
                  "display": "Billing"
                }
              ]
            },
            "rank": 1
          }
        ]
      },
      "request": {
        "method": "PUT",
        "url": "Encounter/b9a07332-5cfb-4fe4-8e31-68fff7720327"
      }
    },
    {
      "fullUrl": "https://madie.cms.gov/MedicationRequest/579d50f8-f717-4420-b87e-21cbf9780117",
      "resource": {
        "resourceType": "MedicationRequest",
        "id": "579d50f8-f717-4420-b87e-21cbf9780117",
        "meta": {
          "profile": [
            "http://hl7.org/fhir/us/qicore/StructureDefinition/qicore-medicationrequest"
          ]
        },
        "status": "active",
        "intent": "order",
        "category": [
          {
            "coding": [
              {
                "system": "http://terminology.hl7.org/CodeSystem/medicationrequest-category",
                "code": "discharge",
                "display": "Discharge",
                "userSelected": true
              }
            ]
          }
        ],
        "medicationCodeableConcept": {
          "coding": [
            {
              "system": "http://www.nlm.nih.gov/research/umls/rxnorm",
              "code": "1037045"
            }
          ]
        },
        "subject": {
          "reference": "Patient/c1c9ffa9-0743-4589-b99d-2d81776180d5"
        },
        "authoredOn": "2025-10-10T10:00:00.000+00:00",
        "requester": {
          "reference": "Practitioner/example"
        }
      },
      "request": {
        "method": "PUT",
        "url": "MedicationRequest/579d50f8-f717-4420-b87e-21cbf9780117"
      }
    },
    {
      "fullUrl": "https://madie.cms.gov/Condition/32dd0a00-d309-452b-96e7-deb42f3c09b4",
      "resource": {
        "resourceType": "Condition",
        "id": "32dd0a00-d309-452b-96e7-deb42f3c09b4",
        "meta": {
          "profile": [
            "http://hl7.org/fhir/us/qicore/StructureDefinition/qicore-condition"
          ]
        },
        "clinicalStatus": {
          "coding": [
            {
              "system": "http://terminology.hl7.org/CodeSystem/condition-clinical",
              "code": "active"
            }
          ]
        },
        "verificationStatus": {
          "coding": [
            {
              "system": "http://terminology.hl7.org/CodeSystem/condition-ver-status",
              "code": "confirmed"
            }
          ]
        },
        "category": [
          {
            "coding": [
              {
                "system": "http://terminology.hl7.org/CodeSystem/condition-category",
                "code": "encounter-diagnosis",
                "display": "Encounter Diagnosis"
              }
            ]
          }
        ],
        "code": {
          "coding": [
            {
              "system": "http://snomed.info/sct",
              "version": "2020-09",
              "code": "111297002",
              "display": "Nonparalytic stroke (disorder)",
              "userSelected": true
            }
          ]
        },
        "subject": {
          "reference": "Patient/c1c9ffa9-0743-4589-b99d-2d81776180d5"
        },
        "recordedDate": "2025-07-15T08:00:00.000+00:00"
      },
      "request": {
        "method": "PUT",
        "url": "Condition/32dd0a00-d309-452b-96e7-deb42f3c09b4"
      }
    },
    {
      "fullUrl": "https://madie.cms.gov/Coverage/51b05176-8c53-4e91-a9fa-f1a0c1afa6bc",
      "resource": {
        "resourceType": "Coverage",
        "id": "51b05176-8c53-4e91-a9fa-f1a0c1afa6bc",
        "meta": {
          "profile": [
            "http://hl7.org/fhir/us/qicore/StructureDefinition/qicore-coverage"
          ]
        },
        "status": "active",
        "beneficiary": {
          "reference": "Patient/c1c9ffa9-0743-4589-b99d-2d81776180d5"
        },
        "payor": [
          {
            "reference": "Organization/87cdeef1-1bc0-4052-ac0f-0847f5cb085f"
          }
        ]
      },
      "request": {
        "method": "PUT",
        "url": "Coverage/51b05176-8c53-4e91-a9fa-f1a0c1afa6bc"
      }
    },
    {
      "fullUrl": "https://madie.cms.gov/Organization/87cdeef1-1bc0-4052-ac0f-0847f5cb085f",
      "resource": {
        "resourceType": "Organization",
        "id": "87cdeef1-1bc0-4052-ac0f-0847f5cb085f",
        "meta": {
          "profile": [
            "http://hl7.org/fhir/us/qicore/StructureDefinition/qicore-organization"
          ]
        },
        "identifier": [
          {
            "use": "temp",
            "system": "urn:oid:2.16.840.1.113883.4.4",
            "value": "21-3259825"
          }
        ],
        "active": true,
        "type": [
          {
            "coding": [
              {
                "system": "http://terminology.hl7.org/CodeSystem/organization-type",
                "code": "pay",
                "display": "Payer"
              }
            ]
          }
        ],
        "name": "Blue Cross Blue Shield of Texas",
        "telecom": [
          {
            "system": "phone",
            "value": "(+1) 972-766-6900"
          }
        ],
        "address": [
          {
            "use": "billing",
            "type": "postal",
            "line": [
              "P.O. Box 660044"
            ],
            "city": "Dallas",
            "state": "TX",
            "postalCode": "75266-0044",
            "country": "USA"
          }
        ]
      },
      "request": {
        "method": "PUT",
        "url": "Organization/87cdeef1-1bc0-4052-ac0f-0847f5cb085f"
      }
    },
    {
      "fullUrl": "https://madie.cms.gov/MeasureReport/801874ca-8eec-48a8-8b34-78dbb6ec7b0c",
      "resource": {
        "resourceType": "MeasureReport",
        "id": "801874ca-8eec-48a8-8b34-78dbb6ec7b0c",
        "meta": {
          "profile": [
            "http://hl7.org/fhir/us/cqfmeasures/StructureDefinition/test-case-cqfm"
          ]
        },
        "contained": [
          {
            "resourceType": "Parameters",
            "id": "52b942aa-376b-43d6-be77-2be638431c96-parameters",
            "parameter": [
              {
                "name": "subject",
                "valueString": "c1c9ffa9-0743-4589-b99d-2d81776180d5"
              }
            ]
          }
        ],
        "extension": [
          {
            "url": "http://hl7.org/fhir/us/cqfmeasures/StructureDefinition/cqfm-inputParameters",
            "valueReference": {
              "reference": "#52b942aa-376b-43d6-be77-2be638431c96-parameters"
            }
          },
          {
            "url": "http://hl7.org/fhir/us/cqfmeasures/StructureDefinition/cqfm-testCaseDescription",
            "valueMarkdown": "Age equal to 18 with ischemic stroke"
          }
        ],
        "modifierExtension": [
          {
            "url": "http://hl7.org/fhir/us/cqfmeasures/StructureDefinition/cqfm-isTestCase",
            "valueBoolean": true
          }
        ],
        "status": "complete",
        "type": "individual",
        "measure": "https://madie.cms.gov/Measure/DischargedonAntithromboticTherapyFHIR",
        "period": {
          "start": "2025-01-01",
          "end": "2025-12-31"
        },
        "group": [
          {
            "population": [
              {
                "code": {
                  "coding": [
                    {
                      "system": "http://terminology.hl7.org/CodeSystem/measure-population",
                      "code": "initial-population",
                      "display": "Initial Population"
                    }
                  ]
                },
                "count": 1
              },
              {
                "code": {
                  "coding": [
                    {
                      "system": "http://terminology.hl7.org/CodeSystem/measure-population",
                      "code": "denominator",
                      "display": "Denominator"
                    }
                  ]
                },
                "count": 1
              },
              {
                "code": {
                  "coding": [
                    {
                      "system": "http://terminology.hl7.org/CodeSystem/measure-population",
                      "code": "denominator-exclusion",
                      "display": "Denominator Exclusion"
                    }
                  ]
                },
                "count": 0
              },
              {
                "code": {
                  "coding": [
                    {
                      "system": "http://terminology.hl7.org/CodeSystem/measure-population",
                      "code": "numerator",
                      "display": "Numerator"
                    }
                  ]
                },
                "count": 1
              },
              {
                "code": {
                  "coding": [
                    {
                      "system": "http://terminology.hl7.org/CodeSystem/measure-population",
                      "code": "denominator-exception",
                      "display": "Denominator Exception"
                    }
                  ]
                },
                "count": 0
              }
            ]
          }
        ],
        "evaluatedResource": [
          {
            "reference": "Patient/c1c9ffa9-0743-4589-b99d-2d81776180d5"
          },
          {
            "reference": "Encounter/b9a07332-5cfb-4fe4-8e31-68fff7720327"
          },
          {
            "reference": "MedicationRequest/579d50f8-f717-4420-b87e-21cbf9780117"
          },
          {
            "reference": "Condition/32dd0a00-d309-452b-96e7-deb42f3c09b4"
          },
          {
            "reference": "Coverage/51b05176-8c53-4e91-a9fa-f1a0c1afa6bc"
          },
          {
            "reference": "Organization/87cdeef1-1bc0-4052-ac0f-0847f5cb085f"
          }
        ]
      },
      "request": {
        "method": "PUT",
        "url": "MeasureReport/801874ca-8eec-48a8-8b34-78dbb6ec7b0c"
      }
    }
  ]
}