{"resourceType":"Bundle","id":"tests-151d62c8-c0c8-4651-8ce9-e8df0a511b6d-bundle","type":"transaction","entry":[{"fullUrl":"https://madie.cms.gov/Patient/151d62c8-c0c8-4651-8ce9-e8df0a511b6d","resource":{"resourceType":"Patient","id":"151d62c8-c0c8-4651-8ce9-e8df0a511b6d","meta":{"profile":["http://hl7.org/fhir/us/qicore/StructureDefinition/qicore-patient"]},"text":{"status":"generated","div":"<div xmlns=\"http://www.w3.org/1999/xhtml\"><div class=\"hapiHeaderText\">DelProcRelDtTm1MinB4EDStart <b>IPPASS </b></div><table class=\"hapiPropertyTable\"><tbody><tr><td>Date of birth</td><td><span>31 January 2004</span></td></tr></tbody></table></div>"},"extension":[{"url":"http://hl7.org/fhir/us/core/StructureDefinition/us-core-race","extension":[{"url":"ombCategory","valueCoding":{"system":"urn:oid:2.16.840.1.113883.6.238","code":"1002-5","display":"American Indian or Alaska Native","userSelected":true}},{"url":"text","valueString":"American Indian or Alaska Native"}]},{"url":"http://hl7.org/fhir/us/core/StructureDefinition/us-core-ethnicity","extension":[{"url":"ombCategory","valueCoding":{"system":"urn:oid:2.16.840.1.113883.6.238","code":"2135-2","display":"Hispanic or Latino","userSelected":true}},{"url":"text","valueString":"Hispanic or Latino"}]}],"identifier":[{"type":{"coding":[{"system":"http://terminology.hl7.org/CodeSystem/v2-0203","code":"MR"}]},"system":"https://bonnie-fhir.healthit.gov/","value":"633b3fa00968f80122503d19"}],"active":true,"name":[{"use":"usual","family":"IPPass","given":["DelProcRelDtTm1MinB4EDStart"]}],"gender":"female","birthDate":"2004-01-31"},"request":{"method":"PUT","url":"Patient/151d62c8-c0c8-4651-8ce9-e8df0a511b6d"}},{"fullUrl":"https://madie.cms.gov/Encounter/1fe49bb2-cf36-434e-a17c-5318dcf1454c","resource":{"resourceType":"Encounter","id":"1fe49bb2-cf36-434e-a17c-5318dcf1454c","meta":{"profile":["http://hl7.org/fhir/us/qicore/StructureDefinition/qicore-encounter"]},"status":"finished","class":{"system":"http://terminology.hl7.org/CodeSystem/v3-ActCode","code":"IMP","display":"inpatient encounter"},"type":[{"coding":[{"system":"http://snomed.info/sct","code":"183452005"}]}],"subject":{"reference":"Patient/151d62c8-c0c8-4651-8ce9-e8df0a511b6d"},"period":{"start":"2024-02-01T09:00:00.000Z","end":"2024-02-05T08:15:00.000Z"}},"request":{"method":"PUT","url":"Encounter/1fe49bb2-cf36-434e-a17c-5318dcf1454c"}},{"fullUrl":"https://madie.cms.gov/Encounter/43b7125c-b878-4d80-890b-439373bcb62f","resource":{"resourceType":"Encounter","id":"43b7125c-b878-4d80-890b-439373bcb62f","meta":{"profile":["http://hl7.org/fhir/us/qicore/StructureDefinition/qicore-encounter"]},"status":"finished","class":{"system":"http://terminology.hl7.org/CodeSystem/v3-ActCode","code":"IMP","display":"inpatient encounter"},"type":[{"coding":[{"system":"http://snomed.info/sct","code":"448951000124107"}]}],"subject":{"reference":"Patient/151d62c8-c0c8-4651-8ce9-e8df0a511b6d"},"period":{"start":"2024-02-01T08:00:00.000Z","end":"2024-02-01T08:59:00.000Z"}},"request":{"method":"PUT","url":"Encounter/43b7125c-b878-4d80-890b-439373bcb62f"}},{"fullUrl":"https://madie.cms.gov/Encounter/9612fe2b-8697-47b7-9f56-ad12707f0a42","resource":{"resourceType":"Encounter","id":"9612fe2b-8697-47b7-9f56-ad12707f0a42","meta":{"profile":["http://hl7.org/fhir/us/qicore/StructureDefinition/qicore-encounter"]},"status":"finished","class":{"system":"http://terminology.hl7.org/CodeSystem/v3-ActCode","code":"IMP","display":"inpatient encounter"},"type":[{"coding":[{"system":"http://snomed.info/sct","code":"42102002"}]}],"subject":{"reference":"Patient/151d62c8-c0c8-4651-8ce9-e8df0a511b6d"},"period":{"start":"2024-02-01T07:00:00.000Z","end":"2024-02-01T07:59:00.000Z"}},"request":{"method":"PUT","url":"Encounter/9612fe2b-8697-47b7-9f56-ad12707f0a42"}},{"fullUrl":"https://madie.cms.gov/Procedure/056df14e-e8e9-4ed3-8d66-1d445c747fa2","resource":{"resourceType":"Procedure","id":"056df14e-e8e9-4ed3-8d66-1d445c747fa2","meta":{"profile":["http://hl7.org/fhir/us/qicore/StructureDefinition/qicore-procedure"]},"extension":[{"url":"http://hl7.org/fhir/us/qicore/StructureDefinition/qicore-recorded","valueDateTime":"2013-04-05T09:35:00-04:00"}],"status":"completed","code":{"coding":[{"system":"http://snomed.info/sct","code":"10745001"}]},"subject":{"reference":"Patient/151d62c8-c0c8-4651-8ce9-e8df0a511b6d"},"performedDateTime":"2024-02-01T06:59:00.000+00:00"},"request":{"method":"PUT","url":"Procedure/056df14e-e8e9-4ed3-8d66-1d445c747fa2"}},{"fullUrl":"https://madie.cms.gov/Coverage/2c058184-612e-45dd-9584-98a148cfb2de","resource":{"resourceType":"Coverage","id":"2c058184-612e-45dd-9584-98a148cfb2de","meta":{"profile":["http://hl7.org/fhir/us/qicore/StructureDefinition/qicore-coverage"]},"status":"active","beneficiary":{"reference":"Patient/151d62c8-c0c8-4651-8ce9-e8df0a511b6d"},"payor":[{"reference":"Organization/73ca97ff-3a96-4162-9501-c0e645fdb7ed"}]},"request":{"method":"PUT","url":"Coverage/2c058184-612e-45dd-9584-98a148cfb2de"}},{"fullUrl":"https://madie.cms.gov/Organization/73ca97ff-3a96-4162-9501-c0e645fdb7ed","resource":{"resourceType":"Organization","id":"73ca97ff-3a96-4162-9501-c0e645fdb7ed","meta":{"profile":["http://hl7.org/fhir/us/qicore/StructureDefinition/qicore-organization"]},"identifier":[{"use":"temp","system":"urn:oid:2.16.840.1.113883.4.4","value":"21-3259825"}],"active":true,"type":[{"coding":[{"system":"http://terminology.hl7.org/CodeSystem/organization-type","code":"pay","display":"Payer"}]}],"name":"Blue Cross Blue Shield of Texas","telecom":[{"system":"phone","value":"(+1) 972-766-6900"}],"address":[{"use":"billing","type":"postal","line":["P.O. Box 660044"],"city":"Dallas","state":"TX","postalCode":"75266-0044","country":"USA"}]},"request":{"method":"PUT","url":"Organization/73ca97ff-3a96-4162-9501-c0e645fdb7ed"}},{"fullUrl":"https://madie.cms.gov/Practitioner/f7cd6db9-637b-4026-af52-46751df790f9","resource":{"resourceType":"Practitioner","id":"f7cd6db9-637b-4026-af52-46751df790f9","identifier":[{"system":"http://hl7.org/fhir/sid/us-npi","value":"123456"}],"name":[{"family":"Evil","prefix":["Dr"]}]},"request":{"method":"PUT","url":"Practitioner/f7cd6db9-637b-4026-af52-46751df790f9"}},{"fullUrl":"https://madie.cms.gov/MeasureReport/c2d987a9-c51e-419b-8dfa-8de865750b79","resource":{"resourceType":"MeasureReport","id":"c2d987a9-c51e-419b-8dfa-8de865750b79","meta":{"profile":["http://hl7.org/fhir/us/cqfmeasures/StructureDefinition/test-case-cqfm"]},"contained":[{"resourceType":"Parameters","id":"83307fdb-9000-474b-b549-f25d19690194-parameters","parameter":[{"name":"subject","valueString":"151d62c8-c0c8-4651-8ce9-e8df0a511b6d"}]}],"extension":[{"url":"http://hl7.org/fhir/us/cqfmeasures/StructureDefinition/cqfm-inputParameters","valueReference":{"reference":"#83307fdb-9000-474b-b549-f25d19690194-parameters"}},{"url":"http://hl7.org/fhir/us/cqfmeasures/StructureDefinition/cqfm-testCaseDescription","valueMarkdown":"Delivery Procedure rel date/time = 1 minute before ED start.  ED/OBS/IP all meet global hospitalization criteria.  Passes due to \"day of\" logic which was added back in on 6/7/21.\n"}],"modifierExtension":[{"url":"http://hl7.org/fhir/us/cqfmeasures/StructureDefinition/cqfm-isTestCase","valueBoolean":true}],"status":"complete","type":"individual","measure":"https://madie.cms.gov/Measure/SevereObstetricComplicationsFHIR","period":{"start":"2024-01-01","end":"2024-12-31"},"group":[{"population":[{"code":{"coding":[{"system":"http://terminology.hl7.org/CodeSystem/measure-population","code":"initial-population","display":"Initial Population"}]},"count":1},{"code":{"coding":[{"system":"http://terminology.hl7.org/CodeSystem/measure-population","code":"denominator","display":"Denominator"}]},"count":0},{"code":{"coding":[{"system":"http://terminology.hl7.org/CodeSystem/measure-population","code":"denominator-exclusion","display":"Denominator Exclusion"}]},"count":0},{"code":{"coding":[{"system":"http://terminology.hl7.org/CodeSystem/measure-population","code":"numerator","display":"Numerator"}]},"count":0}]}],"evaluatedResource":[{"reference":"Patient/151d62c8-c0c8-4651-8ce9-e8df0a511b6d"},{"reference":"Encounter/1fe49bb2-cf36-434e-a17c-5318dcf1454c"},{"reference":"Encounter/43b7125c-b878-4d80-890b-439373bcb62f"},{"reference":"Encounter/9612fe2b-8697-47b7-9f56-ad12707f0a42"},{"reference":"Procedure/056df14e-e8e9-4ed3-8d66-1d445c747fa2"},{"reference":"Coverage/2c058184-612e-45dd-9584-98a148cfb2de"},{"reference":"Organization/73ca97ff-3a96-4162-9501-c0e645fdb7ed"},{"reference":"Practitioner/f7cd6db9-637b-4026-af52-46751df790f9"}]},"request":{"method":"PUT","url":"MeasureReport/c2d987a9-c51e-419b-8dfa-8de865750b79"}}]}