{"resourceType":"Bundle","id":"tests-fca44447-73d1-4beb-92a7-6458bb8beaae-bundle","type":"transaction","entry":[{"fullUrl":"https://madie.cms.gov/Patient/fca44447-73d1-4beb-92a7-6458bb8beaae","resource":{"resourceType":"Patient","id":"fca44447-73d1-4beb-92a7-6458bb8beaae","meta":{"profile":["http://hl7.org/fhir/us/qicore/StructureDefinition/qicore-patient"]},"text":{"status":"generated","div":"<div xmlns=\"http://www.w3.org/1999/xhtml\"><div class=\"hapiHeaderText\">PretermBirthCodeCGAEGABothNull <b>RISKPass </b></div><table class=\"hapiPropertyTable\"><tbody><tr><td>Date of birth</td><td><span>01 February 2004</span></td></tr></tbody></table></div>"},"extension":[{"url":"http://hl7.org/fhir/us/core/StructureDefinition/us-core-race","extension":[{"url":"ombCategory","valueCoding":{"system":"urn:oid:2.16.840.1.113883.6.238","code":"1002-5","display":"American Indian or Alaska Native","userSelected":true}},{"url":"text","valueString":"American Indian or Alaska Native"}]},{"url":"http://hl7.org/fhir/us/core/StructureDefinition/us-core-ethnicity","extension":[{"url":"ombCategory","valueCoding":{"system":"urn:oid:2.16.840.1.113883.6.238","code":"2135-2","display":"Hispanic or Latino","userSelected":true}},{"url":"text","valueString":"Hispanic or Latino"}]}],"identifier":[{"type":{"coding":[{"system":"http://terminology.hl7.org/CodeSystem/v2-0203","code":"MR"}]},"system":"https://bonnie-fhir.healthit.gov/","value":"6356dca654e383debade75aa"}],"active":true,"name":[{"use":"usual","family":"RISKPass","given":["PretermBirthCodeCGAEGABothNull"]}],"gender":"female","birthDate":"2004-02-01"},"request":{"method":"PUT","url":"Patient/fca44447-73d1-4beb-92a7-6458bb8beaae"}},{"fullUrl":"https://madie.cms.gov/Observation/c81cce35-049c-4883-9f29-5e62500e8830","resource":{"resourceType":"Observation","id":"c81cce35-049c-4883-9f29-5e62500e8830","meta":{"profile":["http://hl7.org/fhir/us/qicore/StructureDefinition/qicore-observation"]},"status":"final","category":[{"coding":[{"system":"http://terminology.hl7.org/CodeSystem/observation-category","code":"exam","display":"exam","userSelected":true}]}],"code":{"coding":[{"system":"http://loinc.org","code":"93857-1"}]},"subject":{"reference":"Patient/fca44447-73d1-4beb-92a7-6458bb8beaae"},"effectiveDateTime":"2024-02-01T08:00:00.000+00:00","valueDateTime":"2024-02-01T08:00:00+00:00"},"request":{"method":"PUT","url":"Observation/c81cce35-049c-4883-9f29-5e62500e8830"}},{"fullUrl":"https://madie.cms.gov/Encounter/5def0004-edbb-4d47-8fa6-f1887749a6d8","resource":{"resourceType":"Encounter","id":"5def0004-edbb-4d47-8fa6-f1887749a6d8","meta":{"profile":["http://hl7.org/fhir/us/qicore/StructureDefinition/qicore-encounter"]},"status":"finished","class":{"system":"http://terminology.hl7.org/CodeSystem/v3-ActCode","code":"IMP","display":"inpatient encounter"},"type":[{"coding":[{"system":"http://snomed.info/sct","code":"183452005"}]}],"subject":{"reference":"Patient/fca44447-73d1-4beb-92a7-6458bb8beaae"},"period":{"start":"2024-02-01T08:00:00.000Z","end":"2024-02-05T08:15:00.000Z"},"diagnosis":[{"extension":[{"url":"http://hl7.org/fhir/us/qicore/StructureDefinition/qicore-encounter-diagnosisPresentOnAdmission","valueCodeableConcept":{"coding":[{"system":"https://www.cms.gov/Medicare/Medicare-Fee-for-Service-Payment/HospitalAcqCond/Coding","code":"Y"}]}}],"condition":{"reference":"Condition/f64b24f2-57a8-45ac-bc04-8cfaba92fe90"}}]},"request":{"method":"PUT","url":"Encounter/5def0004-edbb-4d47-8fa6-f1887749a6d8"}},{"fullUrl":"https://madie.cms.gov/Procedure/74b98e76-1499-4e8a-89b6-81be30b17420","resource":{"resourceType":"Procedure","id":"74b98e76-1499-4e8a-89b6-81be30b17420","meta":{"profile":["http://hl7.org/fhir/us/qicore/StructureDefinition/qicore-procedure"]},"extension":[{"url":"http://hl7.org/fhir/us/qicore/StructureDefinition/qicore-recorded","valueDateTime":"2013-04-05T09:35:00-04:00"}],"status":"completed","code":{"coding":[{"system":"http://snomed.info/sct","code":"10745001"}]},"subject":{"reference":"Patient/fca44447-73d1-4beb-92a7-6458bb8beaae"},"performedPeriod":{"start":"2024-02-01T08:00:00.000Z","end":"2024-02-05T08:15:00.000Z"}},"request":{"method":"PUT","url":"Procedure/74b98e76-1499-4e8a-89b6-81be30b17420"}},{"fullUrl":"https://madie.cms.gov/Condition/f64b24f2-57a8-45ac-bc04-8cfaba92fe90","resource":{"resourceType":"Condition","id":"f64b24f2-57a8-45ac-bc04-8cfaba92fe90","meta":{"profile":["http://hl7.org/fhir/us/qicore/StructureDefinition/qicore-condition"]},"category":[{"coding":[{"system":"http://terminology.hl7.org/CodeSystem/condition-category","code":"encounter-diagnosis","display":"Encounter Diagnosis"}]}],"code":{"coding":[{"system":"http://hl7.org/fhir/sid/icd-10-cm","version":"2023","code":"Z3A.20","display":"20 weeks gestation","userSelected":true}]},"subject":{"reference":"Patient/fca44447-73d1-4beb-92a7-6458bb8beaae"},"recordedDate":"2024-10-26T08:00:00.000+00:00"},"request":{"method":"PUT","url":"Condition/f64b24f2-57a8-45ac-bc04-8cfaba92fe90"}},{"fullUrl":"https://madie.cms.gov/Coverage/441fcf59-5258-47a7-a322-faa824efeb92","resource":{"resourceType":"Coverage","id":"441fcf59-5258-47a7-a322-faa824efeb92","meta":{"profile":["http://hl7.org/fhir/us/qicore/StructureDefinition/qicore-coverage"]},"status":"active","beneficiary":{"reference":"Patient/fca44447-73d1-4beb-92a7-6458bb8beaae"},"payor":[{"reference":"Organization/4bc85d42-98e1-4b8c-835f-29bd42b5428b"}]},"request":{"method":"PUT","url":"Coverage/441fcf59-5258-47a7-a322-faa824efeb92"}},{"fullUrl":"https://madie.cms.gov/Organization/4bc85d42-98e1-4b8c-835f-29bd42b5428b","resource":{"resourceType":"Organization","id":"4bc85d42-98e1-4b8c-835f-29bd42b5428b","meta":{"profile":["http://hl7.org/fhir/us/qicore/StructureDefinition/qicore-organization"]},"identifier":[{"use":"temp","system":"urn:oid:2.16.840.1.113883.4.4","value":"21-3259825"}],"active":true,"type":[{"coding":[{"system":"http://terminology.hl7.org/CodeSystem/organization-type","code":"pay","display":"Payer"}]}],"name":"Blue Cross Blue Shield of Texas","telecom":[{"system":"phone","value":"(+1) 972-766-6900"}],"address":[{"use":"billing","type":"postal","line":["P.O. Box 660044"],"city":"Dallas","state":"TX","postalCode":"75266-0044","country":"USA"}]},"request":{"method":"PUT","url":"Organization/4bc85d42-98e1-4b8c-835f-29bd42b5428b"}},{"fullUrl":"https://madie.cms.gov/Practitioner/0a18ab08-fb07-4216-a460-9fa66a1aa966","resource":{"resourceType":"Practitioner","id":"0a18ab08-fb07-4216-a460-9fa66a1aa966","identifier":[{"system":"http://hl7.org/fhir/sid/us-npi","value":"123456"}],"name":[{"family":"Evil","prefix":["Dr"]}]},"request":{"method":"PUT","url":"Practitioner/0a18ab08-fb07-4216-a460-9fa66a1aa966"}},{"fullUrl":"https://madie.cms.gov/MeasureReport/07bc57cd-cbe5-4207-a970-9da7915d260f","resource":{"resourceType":"MeasureReport","id":"07bc57cd-cbe5-4207-a970-9da7915d260f","meta":{"profile":["http://hl7.org/fhir/us/cqfmeasures/StructureDefinition/test-case-cqfm"]},"contained":[{"resourceType":"Parameters","id":"6c66d41d-4e17-4c91-8f19-ef5115c0c4aa-parameters","parameter":[{"name":"subject","valueString":"fca44447-73d1-4beb-92a7-6458bb8beaae"}]}],"extension":[{"url":"http://hl7.org/fhir/us/cqfmeasures/StructureDefinition/cqfm-inputParameters","valueReference":{"reference":"#6c66d41d-4e17-4c91-8f19-ef5115c0c4aa-parameters"}},{"url":"http://hl7.org/fhir/us/cqfmeasures/StructureDefinition/cqfm-testCaseDescription","valueMarkdown":"CGA and EGA are both null.  Dx code indicative of preterm birth.  So Risk Variable PreTermBirth will pass based on coding."}],"modifierExtension":[{"url":"http://hl7.org/fhir/us/cqfmeasures/StructureDefinition/cqfm-isTestCase","valueBoolean":true}],"status":"complete","type":"individual","measure":"https://madie.cms.gov/Measure/SevereObstetricComplicationsFHIR","period":{"start":"2024-01-01","end":"2024-12-31"},"group":[{"population":[{"code":{"coding":[{"system":"http://terminology.hl7.org/CodeSystem/measure-population","code":"initial-population","display":"Initial Population"}]},"count":1},{"code":{"coding":[{"system":"http://terminology.hl7.org/CodeSystem/measure-population","code":"denominator","display":"Denominator"}]},"count":1},{"code":{"coding":[{"system":"http://terminology.hl7.org/CodeSystem/measure-population","code":"denominator-exclusion","display":"Denominator Exclusion"}]},"count":0},{"code":{"coding":[{"system":"http://terminology.hl7.org/CodeSystem/measure-population","code":"numerator","display":"Numerator"}]},"count":0}]}],"evaluatedResource":[{"reference":"Patient/fca44447-73d1-4beb-92a7-6458bb8beaae"},{"reference":"Observation/c81cce35-049c-4883-9f29-5e62500e8830"},{"reference":"Encounter/5def0004-edbb-4d47-8fa6-f1887749a6d8"},{"reference":"Procedure/74b98e76-1499-4e8a-89b6-81be30b17420"},{"reference":"Condition/f64b24f2-57a8-45ac-bc04-8cfaba92fe90"},{"reference":"Coverage/441fcf59-5258-47a7-a322-faa824efeb92"},{"reference":"Organization/4bc85d42-98e1-4b8c-835f-29bd42b5428b"},{"reference":"Practitioner/0a18ab08-fb07-4216-a460-9fa66a1aa966"}]},"request":{"method":"PUT","url":"MeasureReport/07bc57cd-cbe5-4207-a970-9da7915d260f"}}]}