{"resourceType":"Bundle","id":"tests-e144c8f1-f704-4db0-a833-ce29b624f454-bundle","type":"transaction","entry":[{"fullUrl":"https://madie.cms.gov/Patient/e144c8f1-f704-4db0-a833-ce29b624f454","resource":{"resourceType":"Patient","id":"e144c8f1-f704-4db0-a833-ce29b624f454","meta":{"profile":["http://hl7.org/fhir/us/qicore/StructureDefinition/qicore-patient"]},"text":{"status":"generated","div":"<div xmlns=\"http://www.w3.org/1999/xhtml\"><div class=\"hapiHeaderText\">AssPrfEGALastIs19FirstIs20 <b>DENOMFAIL </b></div><table class=\"hapiPropertyTable\"><tbody><tr><td>Date of birth</td><td><span>01 February 2004</span></td></tr></tbody></table></div>"},"extension":[{"url":"http://hl7.org/fhir/us/core/StructureDefinition/us-core-race","extension":[{"url":"ombCategory","valueCoding":{"system":"urn:oid:2.16.840.1.113883.6.238","code":"1002-5","display":"American Indian or Alaska Native","userSelected":true}},{"url":"text","valueString":"American Indian or Alaska Native"}]},{"url":"http://hl7.org/fhir/us/core/StructureDefinition/us-core-ethnicity","extension":[{"url":"ombCategory","valueCoding":{"system":"urn:oid:2.16.840.1.113883.6.238","code":"2135-2","display":"Hispanic or Latino","userSelected":true}},{"url":"text","valueString":"Hispanic or Latino"}]}],"identifier":[{"type":{"coding":[{"system":"http://terminology.hl7.org/CodeSystem/v2-0203","code":"MR"}]},"system":"https://bonnie-fhir.healthit.gov/","value":"633b3f9f0968f80122503ce3"}],"active":true,"name":[{"use":"usual","family":"DENOMFail","given":["AssPrfEGALastIs19FirstIs20            "]}],"gender":"female","birthDate":"2004-02-01"},"request":{"method":"PUT","url":"Patient/e144c8f1-f704-4db0-a833-ce29b624f454"}},{"fullUrl":"https://madie.cms.gov/Observation/fb219229-c537-48c1-8e02-89c5a28fc17a","resource":{"resourceType":"Observation","id":"fb219229-c537-48c1-8e02-89c5a28fc17a","meta":{"profile":["http://hl7.org/fhir/us/qicore/StructureDefinition/qicore-observation"]},"status":"final","category":[{"coding":[{"system":"http://terminology.hl7.org/CodeSystem/observation-category","code":"exam","display":"exam","userSelected":true}]}],"code":{"coding":[{"system":"http://loinc.org","code":"93857-1"}]},"subject":{"reference":"Patient/e144c8f1-f704-4db0-a833-ce29b624f454"},"effectiveDateTime":"2024-02-01T08:00:00.000+00:00","valueDateTime":"2024-02-01T08:00:00+00:00"},"request":{"method":"PUT","url":"Observation/fb219229-c537-48c1-8e02-89c5a28fc17a"}},{"fullUrl":"https://madie.cms.gov/Observation/e3d9312f-ab92-4bef-a35f-296bd3d592a1","resource":{"resourceType":"Observation","id":"e3d9312f-ab92-4bef-a35f-296bd3d592a1","meta":{"profile":["http://hl7.org/fhir/us/qicore/StructureDefinition/qicore-observation"]},"status":"final","category":[{"coding":[{"system":"http://terminology.hl7.org/CodeSystem/observation-category","code":"exam","display":"exam","userSelected":true}]}],"code":{"coding":[{"system":"http://loinc.org","code":"11884-4"}]},"subject":{"reference":"Patient/e144c8f1-f704-4db0-a833-ce29b624f454"},"effectiveDateTime":"2024-02-01T07:00:00.000+00:00","valueQuantity":{"value":20,"unit":"wk"}},"request":{"method":"PUT","url":"Observation/e3d9312f-ab92-4bef-a35f-296bd3d592a1"}},{"fullUrl":"https://madie.cms.gov/Observation/e35131e8-c969-42b4-81ff-2deaeaa7920c","resource":{"resourceType":"Observation","id":"e35131e8-c969-42b4-81ff-2deaeaa7920c","meta":{"profile":["http://hl7.org/fhir/us/qicore/StructureDefinition/qicore-observation"]},"status":"final","category":[{"coding":[{"system":"http://terminology.hl7.org/CodeSystem/observation-category","code":"exam","display":"exam","userSelected":true}]}],"code":{"coding":[{"system":"http://loinc.org","code":"11884-4"}]},"subject":{"reference":"Patient/e144c8f1-f704-4db0-a833-ce29b624f454"},"effectiveDateTime":"2024-02-01T08:00:00.000+00:00","valueQuantity":{"value":19,"unit":"wk"}},"request":{"method":"PUT","url":"Observation/e35131e8-c969-42b4-81ff-2deaeaa7920c"}},{"fullUrl":"https://madie.cms.gov/Encounter/32a7ef56-6477-4fb8-9162-dcf9625559ff","resource":{"resourceType":"Encounter","id":"32a7ef56-6477-4fb8-9162-dcf9625559ff","meta":{"profile":["http://hl7.org/fhir/us/qicore/StructureDefinition/qicore-encounter"]},"status":"finished","class":{"system":"http://terminology.hl7.org/CodeSystem/v3-ActCode","code":"IMP","display":"inpatient encounter"},"type":[{"coding":[{"system":"http://snomed.info/sct","code":"183452005"}]}],"subject":{"reference":"Patient/e144c8f1-f704-4db0-a833-ce29b624f454"},"period":{"start":"2024-02-01T08:00:00.000Z","end":"2024-02-05T08:15:00.000Z"},"diagnosis":[{"condition":{"reference":"Condition/delivery-of-singleton-f83c"},"use":{"coding":[{"system":"http://snomed.info/sct","code":"169826009","display":"Delivery of Singleton"}]}}]},"request":{"method":"PUT","url":"Encounter/32a7ef56-6477-4fb8-9162-dcf9625559ff"}},{"fullUrl":"https://madie.cms.gov/Coverage/ec561561-972b-4734-a5fc-a30ee8c1add6","resource":{"resourceType":"Coverage","id":"ec561561-972b-4734-a5fc-a30ee8c1add6","status":"active","beneficiary":{"reference":"Patient/e144c8f1-f704-4db0-a833-ce29b624f454"},"period":{"start":"2004-02-01T08:00:00.000Z"},"payor":[{"reference":"Organization/e188eba9-6400-44ec-9580-1e273ca310ce"}]},"request":{"method":"PUT","url":"Coverage/ec561561-972b-4734-a5fc-a30ee8c1add6"}},{"fullUrl":"https://madie.cms.gov/Procedure/ea0cd2dc-2d53-42ca-9b24-1162a8bc95c3","resource":{"resourceType":"Procedure","id":"ea0cd2dc-2d53-42ca-9b24-1162a8bc95c3","meta":{"profile":["http://hl7.org/fhir/us/qicore/StructureDefinition/qicore-procedure"]},"extension":[{"url":"http://hl7.org/fhir/us/qicore/StructureDefinition/qicore-recorded","valueDateTime":"2013-04-05T09:35:00-04:00"}],"status":"completed","code":{"coding":[{"system":"http://snomed.info/sct","code":"10745001"}]},"subject":{"reference":"Patient/e144c8f1-f704-4db0-a833-ce29b624f454"},"performedPeriod":{"start":"2024-02-01T08:00:00.000Z","end":"2024-02-05T08:15:00.000Z"}},"request":{"method":"PUT","url":"Procedure/ea0cd2dc-2d53-42ca-9b24-1162a8bc95c3"}},{"fullUrl":"https://madie.cms.gov/Organization/e188eba9-6400-44ec-9580-1e273ca310ce","resource":{"resourceType":"Organization","id":"e188eba9-6400-44ec-9580-1e273ca310ce","meta":{"profile":["http://hl7.org/fhir/us/qicore/StructureDefinition/qicore-organization"]},"identifier":[{"use":"temp","system":"urn:oid:2.16.840.1.113883.4.4","value":"21-3259825"}],"active":true,"type":[{"coding":[{"system":"http://terminology.hl7.org/CodeSystem/organization-type","code":"pay","display":"Payer"}]}],"name":"Blue Cross Blue Shield of Texas","telecom":[{"system":"phone","value":"(+1) 972-766-6900"}],"address":[{"use":"billing","type":"postal","line":["P.O. Box 660044"],"city":"Dallas","state":"TX","postalCode":"75266-0044","country":"USA"}]},"request":{"method":"PUT","url":"Organization/e188eba9-6400-44ec-9580-1e273ca310ce"}},{"fullUrl":"https://madie.cms.gov/Practitioner/1a1b99a4-f23c-4cb2-aa49-b17fe31f1a03","resource":{"resourceType":"Practitioner","id":"1a1b99a4-f23c-4cb2-aa49-b17fe31f1a03","identifier":[{"system":"http://hl7.org/fhir/sid/us-npi","value":"123456"}],"name":[{"family":"Evil","prefix":["Dr"]}]},"request":{"method":"PUT","url":"Practitioner/1a1b99a4-f23c-4cb2-aa49-b17fe31f1a03"}},{"fullUrl":"https://madie.cms.gov/MeasureReport/407c2ee6-098a-4c87-be3c-a53c16639ac4","resource":{"resourceType":"MeasureReport","id":"407c2ee6-098a-4c87-be3c-a53c16639ac4","meta":{"profile":["http://hl7.org/fhir/us/cqfmeasures/StructureDefinition/test-case-cqfm"]},"contained":[{"resourceType":"Parameters","id":"b6d79839-9796-4b52-b6f7-54afbdab2e7c-parameters","parameter":[{"name":"subject","valueString":"e144c8f1-f704-4db0-a833-ce29b624f454"}]}],"extension":[{"url":"http://hl7.org/fhir/us/cqfmeasures/StructureDefinition/cqfm-inputParameters","valueReference":{"reference":"#b6d79839-9796-4b52-b6f7-54afbdab2e7c-parameters"}},{"url":"http://hl7.org/fhir/us/cqfmeasures/StructureDefinition/cqfm-testCaseDescription","valueMarkdown":"Last Assessment Performed EGA = 19 weeks\n"}],"modifierExtension":[{"url":"http://hl7.org/fhir/us/cqfmeasures/StructureDefinition/cqfm-isTestCase","valueBoolean":true}],"status":"complete","type":"individual","measure":"https://madie.cms.gov/Measure/SevereObstetricComplicationsFHIR","period":{"start":"2024-01-01","end":"2024-12-31"},"group":[{"population":[{"code":{"coding":[{"system":"http://terminology.hl7.org/CodeSystem/measure-population","code":"initial-population","display":"Initial Population"}]},"count":1},{"code":{"coding":[{"system":"http://terminology.hl7.org/CodeSystem/measure-population","code":"denominator","display":"Denominator"}]},"count":0},{"code":{"coding":[{"system":"http://terminology.hl7.org/CodeSystem/measure-population","code":"denominator-exclusion","display":"Denominator Exclusion"}]},"count":0},{"code":{"coding":[{"system":"http://terminology.hl7.org/CodeSystem/measure-population","code":"numerator","display":"Numerator"}]},"count":0}]}],"evaluatedResource":[{"reference":"Patient/e144c8f1-f704-4db0-a833-ce29b624f454"},{"reference":"Observation/fb219229-c537-48c1-8e02-89c5a28fc17a"},{"reference":"Observation/e3d9312f-ab92-4bef-a35f-296bd3d592a1"},{"reference":"Observation/e35131e8-c969-42b4-81ff-2deaeaa7920c"},{"reference":"Encounter/32a7ef56-6477-4fb8-9162-dcf9625559ff"},{"reference":"Coverage/ec561561-972b-4734-a5fc-a30ee8c1add6"},{"reference":"Procedure/ea0cd2dc-2d53-42ca-9b24-1162a8bc95c3"},{"reference":"Organization/e188eba9-6400-44ec-9580-1e273ca310ce"},{"reference":"Practitioner/1a1b99a4-f23c-4cb2-aa49-b17fe31f1a03"}]},"request":{"method":"PUT","url":"MeasureReport/407c2ee6-098a-4c87-be3c-a53c16639ac4"}}]}