{"resourceType":"Bundle","id":"tests-a0f14d95-50f8-4786-bdf5-d58ba6e40e38-bundle","type":"transaction","entry":[{"fullUrl":"https://madie.cms.gov/Patient/a0f14d95-50f8-4786-bdf5-d58ba6e40e38","resource":{"resourceType":"Patient","id":"a0f14d95-50f8-4786-bdf5-d58ba6e40e38","meta":{"profile":["http://hl7.org/fhir/us/qicore/StructureDefinition/qicore-patient"]},"text":{"status":"generated","div":"<div xmlns=\"http://www.w3.org/1999/xhtml\"><div class=\"hapiHeaderText\">RISKHR24hoursB4EDOTTriageEnc  <b>RISKPass </b></div><table class=\"hapiPropertyTable\"><tbody><tr><td>Date of birth</td><td><span>01 February 2004</span></td></tr></tbody></table></div>"},"extension":[{"url":"http://hl7.org/fhir/us/core/StructureDefinition/us-core-race","extension":[{"url":"ombCategory","valueCoding":{"system":"urn:oid:2.16.840.1.113883.6.238","code":"1002-5","display":"American Indian or Alaska Native","userSelected":true}},{"url":"text","valueString":"American Indian or Alaska Native"}]},{"url":"http://hl7.org/fhir/us/core/StructureDefinition/us-core-ethnicity","extension":[{"url":"ombCategory","valueCoding":{"system":"urn:oid:2.16.840.1.113883.6.238","code":"2135-2","display":"Hispanic or Latino","userSelected":true}},{"url":"text","valueString":"Hispanic or Latino"}]}],"identifier":[{"type":{"coding":[{"system":"http://terminology.hl7.org/CodeSystem/v2-0203","code":"MR"}]},"system":"https://bonnie-fhir.healthit.gov/","value":"63598dd9c35f1c19df09adbd"}],"active":true,"name":[{"use":"usual","family":"RiskPass","given":["RISKHRRelDtTimeEQDelStartless1Min"]}],"gender":"female","birthDate":"2004-02-01"},"request":{"method":"PUT","url":"Patient/a0f14d95-50f8-4786-bdf5-d58ba6e40e38"}},{"fullUrl":"https://madie.cms.gov/Observation/0ce049cf-c451-4697-845e-7d752206a795","resource":{"resourceType":"Observation","id":"0ce049cf-c451-4697-845e-7d752206a795","meta":{"profile":["http://hl7.org/fhir/us/qicore/StructureDefinition/qicore-observation"]},"status":"final","category":[{"coding":[{"system":"http://terminology.hl7.org/CodeSystem/observation-category","code":"exam","display":"exam","userSelected":true}]}],"code":{"coding":[{"system":"http://loinc.org","code":"93857-1"}]},"subject":{"reference":"Patient/a0f14d95-50f8-4786-bdf5-d58ba6e40e38"},"effectiveDateTime":"2024-02-01T08:00:00.000+00:00","valueDateTime":"2024-02-01T08:00:00+00:00"},"request":{"method":"PUT","url":"Observation/0ce049cf-c451-4697-845e-7d752206a795"}},{"fullUrl":"https://madie.cms.gov/Observation/686df138-8645-4cdb-95e0-9c6b3d90c65d","resource":{"resourceType":"Observation","id":"686df138-8645-4cdb-95e0-9c6b3d90c65d","meta":{"profile":["http://hl7.org/fhir/us/qicore/StructureDefinition/qicore-observation"]},"status":"final","category":[{"coding":[{"system":"http://terminology.hl7.org/CodeSystem/observation-category","code":"exam","display":"exam","userSelected":true}]}],"code":{"coding":[{"system":"http://loinc.org","code":"11884-4"}]},"subject":{"reference":"Patient/a0f14d95-50f8-4786-bdf5-d58ba6e40e38"},"effectiveDateTime":"2024-02-01T08:00:00.000+00:00","valueQuantity":{"value":21,"system":"http://unitsofmeasure.org","code":"wk"}},"request":{"method":"PUT","url":"Observation/686df138-8645-4cdb-95e0-9c6b3d90c65d"}},{"fullUrl":"https://madie.cms.gov/Encounter/730d4090-d36b-41d0-bf55-6a22a74e41fe","resource":{"resourceType":"Encounter","id":"730d4090-d36b-41d0-bf55-6a22a74e41fe","meta":{"profile":["http://hl7.org/fhir/us/qicore/StructureDefinition/qicore-encounter"]},"status":"finished","class":{"system":"http://terminology.hl7.org/CodeSystem/v3-ActCode","code":"IMP","display":"inpatient encounter"},"type":[{"coding":[{"system":"http://snomed.info/sct","code":"183452005"}]}],"subject":{"reference":"Patient/a0f14d95-50f8-4786-bdf5-d58ba6e40e38"},"period":{"start":"2024-02-01T08:00:00.000+00:00","end":"2024-02-05T08:15:00.000+00:00"}},"request":{"method":"PUT","url":"Encounter/730d4090-d36b-41d0-bf55-6a22a74e41fe"}},{"fullUrl":"https://madie.cms.gov/Encounter/45c57f44-84f8-424f-9e68-7dbe8faac1ed","resource":{"resourceType":"Encounter","id":"45c57f44-84f8-424f-9e68-7dbe8faac1ed","meta":{"profile":["http://hl7.org/fhir/us/qicore/StructureDefinition/qicore-encounter"]},"status":"finished","class":{"system":"http://terminology.hl7.org/CodeSystem/v3-ActCode","code":"EMER","display":"emergency"},"type":[{"coding":[{"system":"http://snomed.info/sct","code":"4525004"}]}],"subject":{"reference":"Patient/a0f14d95-50f8-4786-bdf5-d58ba6e40e38"},"period":{"start":"2024-02-01T07:00:00.000+00:00","end":"2024-02-01T07:59:00.000+00:00"}},"request":{"method":"PUT","url":"Encounter/45c57f44-84f8-424f-9e68-7dbe8faac1ed"}},{"fullUrl":"https://madie.cms.gov/Procedure/1803ee19-a289-430d-928e-2905c6fe4070","resource":{"resourceType":"Procedure","id":"1803ee19-a289-430d-928e-2905c6fe4070","meta":{"profile":["http://hl7.org/fhir/us/qicore/StructureDefinition/qicore-procedure"]},"extension":[{"url":"http://hl7.org/fhir/us/qicore/StructureDefinition/qicore-recorded","valueDateTime":"2024-02-04T09:35:00-04:00"}],"status":"completed","code":{"coding":[{"system":"http://snomed.info/sct","code":"10745001"}]},"subject":{"reference":"Patient/a0f14d95-50f8-4786-bdf5-d58ba6e40e38"},"performedPeriod":{"start":"2024-02-01T08:00:00.000+00:00","end":"2024-02-05T08:15:00.000+00:00"}},"request":{"method":"PUT","url":"Procedure/1803ee19-a289-430d-928e-2905c6fe4070"}},{"fullUrl":"https://madie.cms.gov/Observation/de01a444-a9e5-42e1-9033-bb45e4d9a78b","resource":{"resourceType":"Observation","id":"de01a444-a9e5-42e1-9033-bb45e4d9a78b","meta":{"profile":["http://hl7.org/fhir/StructureDefinition/heartrate"]},"status":"final","category":[{"coding":[{"system":"http://terminology.hl7.org/CodeSystem/observation-category","code":"vital-signs","display":"vital-signs","userSelected":true}]}],"code":{"coding":[{"system":"http://loinc.org","version":"2.73","code":"8867-4","display":"Heart Rate"}]},"subject":{"reference":"Patient/a0f14d95-50f8-4786-bdf5-d58ba6e40e38"},"effectiveDateTime":"2024-01-31T07:00:00.000+00:00","valueQuantity":{"value":85,"unit":"/min","system":"http://unitsofmeasure.org","code":"/min"}},"request":{"method":"PUT","url":"Observation/de01a444-a9e5-42e1-9033-bb45e4d9a78b"}},{"fullUrl":"https://madie.cms.gov/MeasureReport/96cffed7-0500-4783-b837-64aae60b20ee","resource":{"resourceType":"MeasureReport","id":"96cffed7-0500-4783-b837-64aae60b20ee","meta":{"profile":["http://hl7.org/fhir/us/cqfmeasures/StructureDefinition/test-case-cqfm"]},"contained":[{"resourceType":"Parameters","id":"d20f988d-26c0-4789-bcf7-3ac432f63b66-parameters","parameter":[{"name":"subject","valueString":"a0f14d95-50f8-4786-bdf5-d58ba6e40e38"}]}],"extension":[{"url":"http://hl7.org/fhir/us/cqfmeasures/StructureDefinition/cqfm-inputParameters","valueReference":{"reference":"#d20f988d-26c0-4789-bcf7-3ac432f63b66-parameters"}},{"url":"http://hl7.org/fhir/us/cqfmeasures/StructureDefinition/cqfm-testCaseDescription","valueMarkdown":"Patient with heart rate that starts 24 hours before ED OB Triage encounter.  \n"}],"modifierExtension":[{"url":"http://hl7.org/fhir/us/cqfmeasures/StructureDefinition/cqfm-isTestCase","valueBoolean":true}],"status":"complete","type":"individual","measure":"https://madie.cms.gov/Measure/SevereObstetricComplicationsFHIR","period":{"start":"2024-01-01","end":"2024-12-31"},"group":[{"population":[{"code":{"coding":[{"system":"http://terminology.hl7.org/CodeSystem/measure-population","code":"initial-population","display":"Initial Population"}]},"count":1},{"code":{"coding":[{"system":"http://terminology.hl7.org/CodeSystem/measure-population","code":"denominator","display":"Denominator"}]},"count":1},{"code":{"coding":[{"system":"http://terminology.hl7.org/CodeSystem/measure-population","code":"denominator-exclusion","display":"Denominator Exclusion"}]},"count":0},{"code":{"coding":[{"system":"http://terminology.hl7.org/CodeSystem/measure-population","code":"numerator","display":"Numerator"}]},"count":0}]}],"evaluatedResource":[{"reference":"Patient/a0f14d95-50f8-4786-bdf5-d58ba6e40e38"},{"reference":"Observation/0ce049cf-c451-4697-845e-7d752206a795"},{"reference":"Observation/686df138-8645-4cdb-95e0-9c6b3d90c65d"},{"reference":"Encounter/730d4090-d36b-41d0-bf55-6a22a74e41fe"},{"reference":"Encounter/45c57f44-84f8-424f-9e68-7dbe8faac1ed"},{"reference":"Procedure/1803ee19-a289-430d-928e-2905c6fe4070"},{"reference":"Observation/de01a444-a9e5-42e1-9033-bb45e4d9a78b"}]},"request":{"method":"PUT","url":"MeasureReport/96cffed7-0500-4783-b837-64aae60b20ee"}}]}