{"resourceType":"Bundle","id":"tests-fed97f33-1744-4f31-85f7-de5e6a7817d6-bundle","type":"transaction","entry":[{"fullUrl":"https://madie.cms.gov/Patient/fed97f33-1744-4f31-85f7-de5e6a7817d6","resource":{"resourceType":"Patient","id":"fed97f33-1744-4f31-85f7-de5e6a7817d6","meta":{"profile":["http://hl7.org/fhir/us/qicore/StructureDefinition/qicore-patient"]},"text":{"status":"generated","div":"<div xmlns=\"http://www.w3.org/1999/xhtml\"><div class=\"hapiHeaderText\">1ENCMeets1EncDoesNotMeet <b>NUMPASS </b></div><table class=\"hapiPropertyTable\"><tbody><tr><td>Date of birth</td><td><span>01 February 2004</span></td></tr></tbody></table></div>"},"extension":[{"url":"http://hl7.org/fhir/us/core/StructureDefinition/us-core-race","extension":[{"url":"ombCategory","valueCoding":{"system":"urn:oid:2.16.840.1.113883.6.238","code":"1002-5","display":"American Indian or Alaska Native","userSelected":true}},{"url":"text","valueString":"American Indian or Alaska Native"}]},{"url":"http://hl7.org/fhir/us/core/StructureDefinition/us-core-ethnicity","extension":[{"url":"ombCategory","valueCoding":{"system":"urn:oid:2.16.840.1.113883.6.238","code":"2135-2","display":"Hispanic or Latino","userSelected":true}},{"url":"text","valueString":"Hispanic or Latino"}]}],"identifier":[{"type":{"coding":[{"system":"http://terminology.hl7.org/CodeSystem/v2-0203","code":"MR"}]},"system":"https://bonnie-fhir.healthit.gov/","value":"6356dca654e383debade75aa"}],"active":true,"name":[{"use":"usual","family":"NUMPass","given":["1ENCMeets1EncDoesNotMeet"]}],"gender":"female","birthDate":"2004-02-01"},"request":{"method":"PUT","url":"Patient/fed97f33-1744-4f31-85f7-de5e6a7817d6"}},{"fullUrl":"https://madie.cms.gov/Observation/f18974d5-447d-486f-a509-491bbd481aa0","resource":{"resourceType":"Observation","id":"f18974d5-447d-486f-a509-491bbd481aa0","meta":{"profile":["http://hl7.org/fhir/us/qicore/StructureDefinition/qicore-observation"]},"status":"final","category":[{"coding":[{"system":"http://terminology.hl7.org/CodeSystem/observation-category","code":"exam","display":"exam","userSelected":true}]}],"code":{"coding":[{"system":"http://loinc.org","code":"93857-1"}]},"subject":{"reference":"Patient/fed97f33-1744-4f31-85f7-de5e6a7817d6"},"effectiveDateTime":"2024-02-01T08:00:00.000+00:00","valueDateTime":"2024-02-01T08:00:00+00:00"},"request":{"method":"PUT","url":"Observation/f18974d5-447d-486f-a509-491bbd481aa0"}},{"fullUrl":"https://madie.cms.gov/Observation/d89c4f87-7199-4e17-b079-6358e4400b48","resource":{"resourceType":"Observation","id":"d89c4f87-7199-4e17-b079-6358e4400b48","meta":{"profile":["http://hl7.org/fhir/us/qicore/StructureDefinition/qicore-observation"]},"status":"final","category":[{"coding":[{"system":"http://terminology.hl7.org/CodeSystem/observation-category","code":"exam","display":"exam","userSelected":true}]}],"code":{"coding":[{"system":"http://loinc.org","code":"93857-1"}]},"subject":{"reference":"Patient/fed97f33-1744-4f31-85f7-de5e6a7817d6"},"effectiveDateTime":"2024-11-10T08:00:00.000+00:00","valueDateTime":"2024-11-10T08:00:00+00:00"},"request":{"method":"PUT","url":"Observation/d89c4f87-7199-4e17-b079-6358e4400b48"}},{"fullUrl":"https://madie.cms.gov/Observation/1c672beb-fb40-4eae-9c68-2a3ce59e8ab5","resource":{"resourceType":"Observation","id":"1c672beb-fb40-4eae-9c68-2a3ce59e8ab5","meta":{"profile":["http://hl7.org/fhir/us/qicore/StructureDefinition/qicore-observation"]},"status":"final","category":[{"coding":[{"system":"http://terminology.hl7.org/CodeSystem/observation-category","code":"exam","display":"exam","userSelected":true}]}],"code":{"coding":[{"system":"http://loinc.org","code":"11884-4"}]},"subject":{"reference":"Patient/fed97f33-1744-4f31-85f7-de5e6a7817d6"},"effectiveDateTime":"2024-02-01T08:00:00.000+00:00","valueQuantity":{"value":21,"system":"http://unitsofmeasure.org","code":"wk"}},"request":{"method":"PUT","url":"Observation/1c672beb-fb40-4eae-9c68-2a3ce59e8ab5"}},{"fullUrl":"https://madie.cms.gov/Observation/a7e6b7e8-4aea-4ba1-8448-002b9b9fbf87","resource":{"resourceType":"Observation","id":"a7e6b7e8-4aea-4ba1-8448-002b9b9fbf87","meta":{"profile":["http://hl7.org/fhir/us/qicore/StructureDefinition/qicore-observation"]},"status":"final","category":[{"coding":[{"system":"http://terminology.hl7.org/CodeSystem/observation-category","code":"exam","display":"exam","userSelected":true}]}],"code":{"coding":[{"system":"http://loinc.org","code":"11884-4"}]},"subject":{"reference":"Patient/fed97f33-1744-4f31-85f7-de5e6a7817d6"},"effectiveDateTime":"2024-11-10T08:00:00.000+00:00","valueQuantity":{"value":23,"system":"http://unitsofmeasure.org","code":"wk"}},"request":{"method":"PUT","url":"Observation/a7e6b7e8-4aea-4ba1-8448-002b9b9fbf87"}},{"fullUrl":"https://madie.cms.gov/Encounter/10983325-fe3c-4169-b1ce-6065c32401d5","resource":{"resourceType":"Encounter","id":"10983325-fe3c-4169-b1ce-6065c32401d5","meta":{"profile":["http://hl7.org/fhir/us/qicore/StructureDefinition/qicore-encounter"]},"status":"finished","class":{"system":"http://terminology.hl7.org/CodeSystem/v3-ActCode","code":"IMP","display":"inpatient encounter"},"type":[{"coding":[{"system":"http://snomed.info/sct","code":"183452005"}]}],"subject":{"reference":"Patient/fed97f33-1744-4f31-85f7-de5e6a7817d6"},"period":{"start":"2024-02-01T08:00:00.000Z","end":"2024-02-05T08:15:00.000Z"}},"request":{"method":"PUT","url":"Encounter/10983325-fe3c-4169-b1ce-6065c32401d5"}},{"fullUrl":"https://madie.cms.gov/Encounter/43ca81d6-a834-4225-89a7-e80a29102dfa","resource":{"resourceType":"Encounter","id":"43ca81d6-a834-4225-89a7-e80a29102dfa","meta":{"profile":["http://hl7.org/fhir/us/qicore/StructureDefinition/qicore-encounter"]},"status":"finished","class":{"system":"http://terminology.hl7.org/CodeSystem/v3-ActCode","code":"IMP","display":"inpatient encounter"},"type":[{"coding":[{"system":"http://snomed.info/sct","code":"183452005"}]}],"subject":{"reference":"Patient/fed97f33-1744-4f31-85f7-de5e6a7817d6"},"period":{"start":"2024-11-10T08:00:00.000Z","end":"2024-11-15T08:15:00.000Z"},"diagnosis":[{"extension":[{"url":"http://hl7.org/fhir/us/qicore/StructureDefinition/qicore-encounter-diagnosisPresentOnAdmission","valueCodeableConcept":{"coding":[{"system":"https://www.cms.gov/Medicare/Medicare-Fee-for-Service-Payment/HospitalAcqCond/Coding","code":"N"}]}}],"condition":{"reference":"Condition/3f57c59a-96a4-4a9d-8d0e-5d3aef5ac0c8"}}]},"request":{"method":"PUT","url":"Encounter/43ca81d6-a834-4225-89a7-e80a29102dfa"}},{"fullUrl":"https://madie.cms.gov/Procedure/acdfb09d-5c6c-4a64-8ed8-096604f9224e","resource":{"resourceType":"Procedure","id":"acdfb09d-5c6c-4a64-8ed8-096604f9224e","meta":{"profile":["http://hl7.org/fhir/us/qicore/StructureDefinition/qicore-procedure"]},"extension":[{"url":"http://hl7.org/fhir/us/qicore/StructureDefinition/qicore-recorded","valueDateTime":"2013-04-05T09:35:00-04:00"}],"status":"completed","code":{"coding":[{"system":"http://snomed.info/sct","code":"10745001"}]},"subject":{"reference":"Patient/fed97f33-1744-4f31-85f7-de5e6a7817d6"},"performedPeriod":{"start":"2024-02-01T08:00:00.000Z","end":"2024-02-05T08:15:00.000Z"}},"request":{"method":"PUT","url":"Procedure/acdfb09d-5c6c-4a64-8ed8-096604f9224e"}},{"fullUrl":"https://madie.cms.gov/Procedure/acdfb09d-5c6c-4a64-8ed8-096604f9224e2","resource":{"resourceType":"Procedure","id":"acdfb09d-5c6c-4a64-8ed8-096604f9224e2","meta":{"profile":["http://hl7.org/fhir/us/qicore/StructureDefinition/qicore-procedure"]},"extension":[{"url":"http://hl7.org/fhir/us/qicore/StructureDefinition/qicore-recorded","valueDateTime":"2013-04-05T09:35:00-04:00"}],"status":"completed","code":{"coding":[{"system":"http://snomed.info/sct","code":"10745001"}]},"subject":{"reference":"Patient/fed97f33-1744-4f31-85f7-de5e6a7817d6"},"performedPeriod":{"start":"2024-11-10T08:00:00.000Z","end":"2024-11-10T08:15:00.000Z"}},"request":{"method":"PUT","url":"Procedure/acdfb09d-5c6c-4a64-8ed8-096604f9224e2"}},{"fullUrl":"https://madie.cms.gov/Condition/3f57c59a-96a4-4a9d-8d0e-5d3aef5ac0c8","resource":{"resourceType":"Condition","id":"3f57c59a-96a4-4a9d-8d0e-5d3aef5ac0c8","meta":{"profile":["http://hl7.org/fhir/us/qicore/StructureDefinition/qicore-condition"]},"category":[{"coding":[{"system":"http://terminology.hl7.org/CodeSystem/condition-category","code":"encounter-diagnosis","display":"Encounter Diagnosis"}]}],"code":{"coding":[{"system":"http://hl7.org/fhir/sid/icd-10-cm","version":"2023","code":"A32.7","display":"Listerial sepsis","userSelected":true}]},"subject":{"reference":"Patient/fed97f33-1744-4f31-85f7-de5e6a7817d6"},"recordedDate":"2024-10-26T08:00:00.000+00:00"},"request":{"method":"PUT","url":"Condition/3f57c59a-96a4-4a9d-8d0e-5d3aef5ac0c8"}},{"fullUrl":"https://madie.cms.gov/Coverage/1f882f2b-f309-44ab-b5a2-78e7434c34b2","resource":{"resourceType":"Coverage","id":"1f882f2b-f309-44ab-b5a2-78e7434c34b2","meta":{"profile":["http://hl7.org/fhir/us/qicore/StructureDefinition/qicore-coverage"]},"status":"active","beneficiary":{"reference":"Patient/fed97f33-1744-4f31-85f7-de5e6a7817d6"},"payor":[{"reference":"Organization/cdc082ff-c392-47c1-952a-4a5f651dbf6a"}]},"request":{"method":"PUT","url":"Coverage/1f882f2b-f309-44ab-b5a2-78e7434c34b2"}},{"fullUrl":"https://madie.cms.gov/Organization/cdc082ff-c392-47c1-952a-4a5f651dbf6a","resource":{"resourceType":"Organization","id":"cdc082ff-c392-47c1-952a-4a5f651dbf6a","meta":{"profile":["http://hl7.org/fhir/us/qicore/StructureDefinition/qicore-organization"]},"identifier":[{"use":"temp","system":"urn:oid:2.16.840.1.113883.4.4","value":"21-3259825"}],"active":true,"type":[{"coding":[{"system":"http://terminology.hl7.org/CodeSystem/organization-type","code":"pay","display":"Payer"}]}],"name":"Blue Cross Blue Shield of Texas","telecom":[{"system":"phone","value":"(+1) 972-766-6900"}],"address":[{"use":"billing","type":"postal","line":["P.O. Box 660044"],"city":"Dallas","state":"TX","postalCode":"75266-0044","country":"USA"}]},"request":{"method":"PUT","url":"Organization/cdc082ff-c392-47c1-952a-4a5f651dbf6a"}},{"fullUrl":"https://madie.cms.gov/Practitioner/a4a3e44a-c757-492e-bfe8-b182a71914e4","resource":{"resourceType":"Practitioner","id":"a4a3e44a-c757-492e-bfe8-b182a71914e4","identifier":[{"system":"http://hl7.org/fhir/sid/us-npi","value":"123456"}],"name":[{"family":"Evil","prefix":["Dr"]}]},"request":{"method":"PUT","url":"Practitioner/a4a3e44a-c757-492e-bfe8-b182a71914e4"}},{"fullUrl":"https://madie.cms.gov/MeasureReport/f54a414c-9999-46a8-877c-4a12ad93ef99","resource":{"resourceType":"MeasureReport","id":"f54a414c-9999-46a8-877c-4a12ad93ef99","meta":{"profile":["http://hl7.org/fhir/us/cqfmeasures/StructureDefinition/test-case-cqfm"]},"contained":[{"resourceType":"Parameters","id":"3c69e814-adc9-4452-ad33-88b5ba3c9e4f-parameters","parameter":[{"name":"subject","valueString":"fed97f33-1744-4f31-85f7-de5e6a7817d6"}]}],"extension":[{"url":"http://hl7.org/fhir/us/cqfmeasures/StructureDefinition/cqfm-inputParameters","valueReference":{"reference":"#3c69e814-adc9-4452-ad33-88b5ba3c9e4f-parameters"}},{"url":"http://hl7.org/fhir/us/cqfmeasures/StructureDefinition/cqfm-testCaseDescription","valueMarkdown":"No complications on 1st encounter.\nSepsis on second encounter\n"}],"modifierExtension":[{"url":"http://hl7.org/fhir/us/cqfmeasures/StructureDefinition/cqfm-isTestCase","valueBoolean":true}],"status":"complete","type":"individual","measure":"https://madie.cms.gov/Measure/SevereObstetricComplicationsFHIR","period":{"start":"2024-01-01","end":"2024-12-31"},"group":[{"population":[{"code":{"coding":[{"system":"http://terminology.hl7.org/CodeSystem/measure-population","code":"initial-population","display":"Initial Population"}]},"count":2},{"code":{"coding":[{"system":"http://terminology.hl7.org/CodeSystem/measure-population","code":"denominator","display":"Denominator"}]},"count":2},{"code":{"coding":[{"system":"http://terminology.hl7.org/CodeSystem/measure-population","code":"denominator-exclusion","display":"Denominator Exclusion"}]},"count":0},{"code":{"coding":[{"system":"http://terminology.hl7.org/CodeSystem/measure-population","code":"numerator","display":"Numerator"}]},"count":1}]}],"evaluatedResource":[{"reference":"Patient/fed97f33-1744-4f31-85f7-de5e6a7817d6"},{"reference":"Observation/f18974d5-447d-486f-a509-491bbd481aa0"},{"reference":"Observation/d89c4f87-7199-4e17-b079-6358e4400b48"},{"reference":"Observation/1c672beb-fb40-4eae-9c68-2a3ce59e8ab5"},{"reference":"Observation/a7e6b7e8-4aea-4ba1-8448-002b9b9fbf87"},{"reference":"Encounter/10983325-fe3c-4169-b1ce-6065c32401d5"},{"reference":"Encounter/43ca81d6-a834-4225-89a7-e80a29102dfa"},{"reference":"Procedure/acdfb09d-5c6c-4a64-8ed8-096604f9224e"},{"reference":"Procedure/acdfb09d-5c6c-4a64-8ed8-096604f9224e2"},{"reference":"Condition/3f57c59a-96a4-4a9d-8d0e-5d3aef5ac0c8"},{"reference":"Coverage/1f882f2b-f309-44ab-b5a2-78e7434c34b2"},{"reference":"Organization/cdc082ff-c392-47c1-952a-4a5f651dbf6a"},{"reference":"Practitioner/a4a3e44a-c757-492e-bfe8-b182a71914e4"}]},"request":{"method":"PUT","url":"MeasureReport/f54a414c-9999-46a8-877c-4a12ad93ef99"}}]}