{"resourceType":"Bundle","id":"tests-280a1eb7-c399-4c0c-90ed-e8045fcb6cb2-bundle","type":"transaction","entry":[{"fullUrl":"https://madie.cms.gov/Patient/280a1eb7-c399-4c0c-90ed-e8045fcb6cb2","resource":{"resourceType":"Patient","id":"280a1eb7-c399-4c0c-90ed-e8045fcb6cb2","meta":{"profile":["http://hl7.org/fhir/us/qicore/StructureDefinition/qicore-patient"]},"text":{"status":"generated","div":"<div xmlns=\"http://www.w3.org/1999/xhtml\"><div class=\"hapiHeaderText\">AssPrfDELRsltDtTime_EQIPEndMinus1Min <b>DENOMPASS </b></div><table class=\"hapiPropertyTable\"><tbody><tr><td>Date of birth</td><td><span>01 February 2004</span></td></tr></tbody></table></div>"},"extension":[{"url":"http://hl7.org/fhir/us/core/StructureDefinition/us-core-race","extension":[{"url":"ombCategory","valueCoding":{"system":"urn:oid:2.16.840.1.113883.6.238","code":"1002-5","display":"American Indian or Alaska Native","userSelected":true}},{"url":"text","valueString":"American Indian or Alaska Native"}]},{"url":"http://hl7.org/fhir/us/core/StructureDefinition/us-core-ethnicity","extension":[{"url":"ombCategory","valueCoding":{"system":"urn:oid:2.16.840.1.113883.6.238","code":"2135-2","display":"Hispanic or Latino","userSelected":true}},{"url":"text","valueString":"Hispanic or Latino"}]}],"identifier":[{"type":{"coding":[{"system":"http://terminology.hl7.org/CodeSystem/v2-0203","code":"MR"}]},"system":"https://bonnie-fhir.healthit.gov/","value":"633b3f9f0968f80122503cea"}],"active":true,"name":[{"use":"usual","family":"DENOMPass","given":["AssPrfDELRsltDtTime_EQIPEndMinus1Min"]}],"gender":"female","birthDate":"2004-02-01"},"request":{"method":"PUT","url":"Patient/280a1eb7-c399-4c0c-90ed-e8045fcb6cb2"}},{"fullUrl":"https://madie.cms.gov/Observation/a54a5691-33ec-4a27-8cbe-79016b635903","resource":{"resourceType":"Observation","id":"a54a5691-33ec-4a27-8cbe-79016b635903","meta":{"profile":["http://hl7.org/fhir/us/qicore/StructureDefinition/qicore-observation"]},"status":"final","category":[{"coding":[{"system":"http://terminology.hl7.org/CodeSystem/observation-category","code":"exam","display":"exam","userSelected":true}]}],"code":{"coding":[{"system":"http://loinc.org","code":"93857-1"}]},"subject":{"reference":"Patient/280a1eb7-c399-4c0c-90ed-e8045fcb6cb2"},"effectiveDateTime":"2024-02-05T08:14:00.000+00:00","valueDateTime":"2024-02-05T08:14:00+00:00"},"request":{"method":"PUT","url":"Observation/a54a5691-33ec-4a27-8cbe-79016b635903"}},{"fullUrl":"https://madie.cms.gov/Observation/e4dda23b-85f8-4636-86b1-ef7fa0eac7a6","resource":{"resourceType":"Observation","id":"e4dda23b-85f8-4636-86b1-ef7fa0eac7a6","meta":{"profile":["http://hl7.org/fhir/us/qicore/StructureDefinition/qicore-observation"]},"status":"final","category":[{"coding":[{"system":"http://terminology.hl7.org/CodeSystem/observation-category","code":"exam","display":"exam","userSelected":true}]}],"code":{"coding":[{"system":"http://loinc.org","code":"11778-8"}]},"subject":{"reference":"Patient/280a1eb7-c399-4c0c-90ed-e8045fcb6cb2"},"effectiveDateTime":"2024-02-05T08:00:00.000+00:00","valueDateTime":"2024-02-01T08:00:00.000+00:00"},"request":{"method":"PUT","url":"Observation/e4dda23b-85f8-4636-86b1-ef7fa0eac7a6"}},{"fullUrl":"https://madie.cms.gov/Encounter/970b9c3a-38a5-4f27-a41b-0233d6e0ff60","resource":{"resourceType":"Encounter","id":"970b9c3a-38a5-4f27-a41b-0233d6e0ff60","meta":{"profile":["http://hl7.org/fhir/us/qicore/StructureDefinition/qicore-encounter"]},"status":"finished","class":{"system":"http://terminology.hl7.org/CodeSystem/v3-ActCode","code":"IMP","display":"inpatient encounter"},"type":[{"coding":[{"system":"http://snomed.info/sct","code":"183452005"}]}],"subject":{"reference":"Patient/280a1eb7-c399-4c0c-90ed-e8045fcb6cb2"},"period":{"start":"2024-02-01T08:00:00.000Z","end":"2024-02-05T08:15:00.000Z"}},"request":{"method":"PUT","url":"Encounter/970b9c3a-38a5-4f27-a41b-0233d6e0ff60"}},{"fullUrl":"https://madie.cms.gov/Procedure/674b8f05-a093-48f1-b314-70aa963ce1ce","resource":{"resourceType":"Procedure","id":"674b8f05-a093-48f1-b314-70aa963ce1ce","meta":{"profile":["http://hl7.org/fhir/us/qicore/StructureDefinition/qicore-procedure"]},"extension":[{"url":"http://hl7.org/fhir/us/qicore/StructureDefinition/qicore-recorded","valueDateTime":"2013-04-05T09:35:00-04:00"}],"status":"completed","code":{"coding":[{"system":"http://snomed.info/sct","code":"10745001"}]},"subject":{"reference":"Patient/280a1eb7-c399-4c0c-90ed-e8045fcb6cb2"},"performedPeriod":{"start":"2024-02-01T08:00:00.000Z","end":"2024-02-05T08:15:00.000Z"}},"request":{"method":"PUT","url":"Procedure/674b8f05-a093-48f1-b314-70aa963ce1ce"}},{"fullUrl":"https://madie.cms.gov/Coverage/0d30da38-5364-4f1b-a324-7ddfd8108da7","resource":{"resourceType":"Coverage","id":"0d30da38-5364-4f1b-a324-7ddfd8108da7","meta":{"profile":["http://hl7.org/fhir/us/qicore/StructureDefinition/qicore-coverage"]},"status":"active","beneficiary":{"reference":"Patient/280a1eb7-c399-4c0c-90ed-e8045fcb6cb2"},"payor":[{"reference":"Organization/7f059842-676b-4939-ba02-ac456170e7dd"}]},"request":{"method":"PUT","url":"Coverage/0d30da38-5364-4f1b-a324-7ddfd8108da7"}},{"fullUrl":"https://madie.cms.gov/Organization/7f059842-676b-4939-ba02-ac456170e7dd","resource":{"resourceType":"Organization","id":"7f059842-676b-4939-ba02-ac456170e7dd","meta":{"profile":["http://hl7.org/fhir/us/qicore/StructureDefinition/qicore-organization"]},"identifier":[{"use":"temp","system":"urn:oid:2.16.840.1.113883.4.4","value":"21-3259825"}],"active":true,"type":[{"coding":[{"system":"http://terminology.hl7.org/CodeSystem/organization-type","code":"pay","display":"Payer"}]}],"name":"Blue Cross Blue Shield of Texas","telecom":[{"system":"phone","value":"(+1) 972-766-6900"}],"address":[{"use":"billing","type":"postal","line":["P.O. Box 660044"],"city":"Dallas","state":"TX","postalCode":"75266-0044","country":"USA"}]},"request":{"method":"PUT","url":"Organization/7f059842-676b-4939-ba02-ac456170e7dd"}},{"fullUrl":"https://madie.cms.gov/Practitioner/7cf4a68b-312a-448c-89b0-4683a8d64077","resource":{"resourceType":"Practitioner","id":"7cf4a68b-312a-448c-89b0-4683a8d64077","identifier":[{"system":"http://hl7.org/fhir/sid/us-npi","value":"123456"}],"name":[{"family":"Evil","prefix":["Dr"]}]},"request":{"method":"PUT","url":"Practitioner/7cf4a68b-312a-448c-89b0-4683a8d64077"}},{"fullUrl":"https://madie.cms.gov/MeasureReport/17e9d1fb-2ee3-47f0-b43d-1016ec02ce7a","resource":{"resourceType":"MeasureReport","id":"17e9d1fb-2ee3-47f0-b43d-1016ec02ce7a","meta":{"profile":["http://hl7.org/fhir/us/cqfmeasures/StructureDefinition/test-case-cqfm"]},"contained":[{"resourceType":"Parameters","id":"7ec021ad-c684-424c-ba74-3e7369bcc80c-parameters","parameter":[{"name":"subject","valueString":"280a1eb7-c399-4c0c-90ed-e8045fcb6cb2"}]}],"extension":[{"url":"http://hl7.org/fhir/us/cqfmeasures/StructureDefinition/cqfm-inputParameters","valueReference":{"reference":"#7ec021ad-c684-424c-ba74-3e7369bcc80c-parameters"}},{"url":"http://hl7.org/fhir/us/cqfmeasures/StructureDefinition/cqfm-testCaseDescription","valueMarkdown":"Result date/Time of delivery (based on assessment performed) is equal to encounter end minus one minute\n"}],"modifierExtension":[{"url":"http://hl7.org/fhir/us/cqfmeasures/StructureDefinition/cqfm-isTestCase","valueBoolean":true}],"status":"complete","type":"individual","measure":"https://madie.cms.gov/Measure/SevereObstetricComplicationsFHIR","period":{"start":"2024-01-01","end":"2024-12-31"},"group":[{"population":[{"code":{"coding":[{"system":"http://terminology.hl7.org/CodeSystem/measure-population","code":"initial-population","display":"Initial Population"}]},"count":1},{"code":{"coding":[{"system":"http://terminology.hl7.org/CodeSystem/measure-population","code":"denominator","display":"Denominator"}]},"count":1},{"code":{"coding":[{"system":"http://terminology.hl7.org/CodeSystem/measure-population","code":"denominator-exclusion","display":"Denominator Exclusion"}]},"count":0},{"code":{"coding":[{"system":"http://terminology.hl7.org/CodeSystem/measure-population","code":"numerator","display":"Numerator"}]},"count":0}]}],"evaluatedResource":[{"reference":"Patient/280a1eb7-c399-4c0c-90ed-e8045fcb6cb2"},{"reference":"Observation/a54a5691-33ec-4a27-8cbe-79016b635903"},{"reference":"Observation/e4dda23b-85f8-4636-86b1-ef7fa0eac7a6"},{"reference":"Encounter/970b9c3a-38a5-4f27-a41b-0233d6e0ff60"},{"reference":"Procedure/674b8f05-a093-48f1-b314-70aa963ce1ce"},{"reference":"Coverage/0d30da38-5364-4f1b-a324-7ddfd8108da7"},{"reference":"Organization/7f059842-676b-4939-ba02-ac456170e7dd"},{"reference":"Practitioner/7cf4a68b-312a-448c-89b0-4683a8d64077"}]},"request":{"method":"PUT","url":"MeasureReport/17e9d1fb-2ee3-47f0-b43d-1016ec02ce7a"}}]}