{"resourceType":"Bundle","id":"tests-8127bf9e-30cc-44f4-9ed0-6353c3389490-bundle","type":"transaction","entry":[{"fullUrl":"https://madie.cms.gov/Patient/8127bf9e-30cc-44f4-9ed0-6353c3389490","resource":{"resourceType":"Patient","id":"8127bf9e-30cc-44f4-9ed0-6353c3389490","meta":{"profile":["http://hl7.org/fhir/us/qicore/StructureDefinition/qicore-patient"]},"text":{"status":"generated","div":"<div xmlns=\"http://www.w3.org/1999/xhtml\"><div class=\"hapiHeaderText\">EncEnd=MPEnd <b>IPPASS </b></div><table class=\"hapiPropertyTable\"><tbody><tr><td>Date of birth</td><td><span>31 January 2004</span></td></tr></tbody></table></div>"},"extension":[{"url":"http://hl7.org/fhir/us/core/StructureDefinition/us-core-race","extension":[{"url":"ombCategory","valueCoding":{"system":"urn:oid:2.16.840.1.113883.6.238","code":"1002-5","display":"American Indian or Alaska Native","userSelected":true}},{"url":"text","valueString":"American Indian or Alaska Native"}]},{"url":"http://hl7.org/fhir/us/core/StructureDefinition/us-core-ethnicity","extension":[{"url":"ombCategory","valueCoding":{"system":"urn:oid:2.16.840.1.113883.6.238","code":"2135-2","display":"Hispanic or Latino","userSelected":true}},{"url":"text","valueString":"Hispanic or Latino"}]}],"identifier":[{"type":{"coding":[{"system":"http://terminology.hl7.org/CodeSystem/v2-0203","code":"MR"}]},"system":"https://bonnie-fhir.healthit.gov/","value":"633b3f9e0968f80122503cc0"}],"active":true,"name":[{"use":"usual","family":"IPPass","given":["EncEndEQMPEnd"]}],"gender":"female","birthDate":"2004-01-31"},"request":{"method":"PUT","url":"Patient/8127bf9e-30cc-44f4-9ed0-6353c3389490"}},{"fullUrl":"https://madie.cms.gov/Encounter/4d66d210-0fb1-44e0-8a2b-8d1ff1c82f94","resource":{"resourceType":"Encounter","id":"4d66d210-0fb1-44e0-8a2b-8d1ff1c82f94","meta":{"profile":["http://hl7.org/fhir/us/qicore/StructureDefinition/qicore-encounter"]},"status":"finished","class":{"system":"http://terminology.hl7.org/CodeSystem/v3-ActCode","code":"IMP","display":"inpatient encounter"},"type":[{"coding":[{"system":"http://snomed.info/sct","code":"183452005"}]}],"subject":{"reference":"Patient/8127bf9e-30cc-44f4-9ed0-6353c3389490"},"period":{"start":"2024-02-01T08:00:00.000Z","end":"2024-12-31T23:59:00.000Z"}},"request":{"method":"PUT","url":"Encounter/4d66d210-0fb1-44e0-8a2b-8d1ff1c82f94"}},{"fullUrl":"https://madie.cms.gov/Procedure/d9676ea2-06db-42bd-b3ec-758fbf8a152d","resource":{"resourceType":"Procedure","id":"d9676ea2-06db-42bd-b3ec-758fbf8a152d","meta":{"profile":["http://hl7.org/fhir/us/qicore/StructureDefinition/qicore-procedure"]},"extension":[{"url":"http://hl7.org/fhir/us/qicore/StructureDefinition/qicore-recorded","valueDateTime":"2013-04-05T09:35:00-04:00"}],"status":"completed","code":{"coding":[{"system":"http://snomed.info/sct","code":"10745001"}]},"subject":{"reference":"Patient/8127bf9e-30cc-44f4-9ed0-6353c3389490"},"performedPeriod":{"start":"2024-02-01T08:00:00.000Z","end":"2024-02-05T08:15:00.000Z"}},"request":{"method":"PUT","url":"Procedure/d9676ea2-06db-42bd-b3ec-758fbf8a152d"}},{"fullUrl":"https://madie.cms.gov/Coverage/84d1920b-362c-4742-91f4-4d9106fd852b","resource":{"resourceType":"Coverage","id":"84d1920b-362c-4742-91f4-4d9106fd852b","meta":{"profile":["http://hl7.org/fhir/us/qicore/StructureDefinition/qicore-coverage"]},"status":"active","beneficiary":{"reference":"Patient/8127bf9e-30cc-44f4-9ed0-6353c3389490"},"payor":[{"reference":"Organization/a7966f5e-2ee5-40be-9ec1-cf2e5c62ec17"}]},"request":{"method":"PUT","url":"Coverage/84d1920b-362c-4742-91f4-4d9106fd852b"}},{"fullUrl":"https://madie.cms.gov/Organization/a7966f5e-2ee5-40be-9ec1-cf2e5c62ec17","resource":{"resourceType":"Organization","id":"a7966f5e-2ee5-40be-9ec1-cf2e5c62ec17","meta":{"profile":["http://hl7.org/fhir/us/qicore/StructureDefinition/qicore-organization"]},"identifier":[{"use":"temp","system":"urn:oid:2.16.840.1.113883.4.4","value":"21-3259825"}],"active":true,"type":[{"coding":[{"system":"http://terminology.hl7.org/CodeSystem/organization-type","code":"pay","display":"Payer"}]}],"name":"Blue Cross Blue Shield of Texas","telecom":[{"system":"phone","value":"(+1) 972-766-6900"}],"address":[{"use":"billing","type":"postal","line":["P.O. Box 660044"],"city":"Dallas","state":"TX","postalCode":"75266-0044","country":"USA"}]},"request":{"method":"PUT","url":"Organization/a7966f5e-2ee5-40be-9ec1-cf2e5c62ec17"}},{"fullUrl":"https://madie.cms.gov/Practitioner/ec912427-e9d5-4136-8b1c-0065589decf7","resource":{"resourceType":"Practitioner","id":"ec912427-e9d5-4136-8b1c-0065589decf7","identifier":[{"system":"http://hl7.org/fhir/sid/us-npi","value":"123456"}],"name":[{"family":"Evil","prefix":["Dr"]}]},"request":{"method":"PUT","url":"Practitioner/ec912427-e9d5-4136-8b1c-0065589decf7"}},{"fullUrl":"https://madie.cms.gov/MeasureReport/5a511399-a722-471d-adac-2722f179ccde","resource":{"resourceType":"MeasureReport","id":"5a511399-a722-471d-adac-2722f179ccde","meta":{"profile":["http://hl7.org/fhir/us/cqfmeasures/StructureDefinition/test-case-cqfm"]},"contained":[{"resourceType":"Parameters","id":"2a307f52-1d60-4343-8017-4efd3145b141-parameters","parameter":[{"name":"subject","valueString":"8127bf9e-30cc-44f4-9ed0-6353c3389490"}]}],"extension":[{"url":"http://hl7.org/fhir/us/cqfmeasures/StructureDefinition/cqfm-inputParameters","valueReference":{"reference":"#2a307f52-1d60-4343-8017-4efd3145b141-parameters"}},{"url":"http://hl7.org/fhir/us/cqfmeasures/StructureDefinition/cqfm-testCaseDescription","valueMarkdown":"Encounter end equals measurement period end.\n"}],"modifierExtension":[{"url":"http://hl7.org/fhir/us/cqfmeasures/StructureDefinition/cqfm-isTestCase","valueBoolean":true}],"status":"complete","type":"individual","measure":"https://madie.cms.gov/Measure/SevereObstetricComplicationsFHIR","period":{"start":"2024-01-01","end":"2024-12-31"},"group":[{"population":[{"code":{"coding":[{"system":"http://terminology.hl7.org/CodeSystem/measure-population","code":"initial-population","display":"Initial Population"}]},"count":1},{"code":{"coding":[{"system":"http://terminology.hl7.org/CodeSystem/measure-population","code":"denominator","display":"Denominator"}]},"count":0},{"code":{"coding":[{"system":"http://terminology.hl7.org/CodeSystem/measure-population","code":"denominator-exclusion","display":"Denominator Exclusion"}]},"count":0},{"code":{"coding":[{"system":"http://terminology.hl7.org/CodeSystem/measure-population","code":"numerator","display":"Numerator"}]},"count":0}]}],"evaluatedResource":[{"reference":"Patient/8127bf9e-30cc-44f4-9ed0-6353c3389490"},{"reference":"Encounter/4d66d210-0fb1-44e0-8a2b-8d1ff1c82f94"},{"reference":"Procedure/d9676ea2-06db-42bd-b3ec-758fbf8a152d"},{"reference":"Coverage/84d1920b-362c-4742-91f4-4d9106fd852b"},{"reference":"Organization/a7966f5e-2ee5-40be-9ec1-cf2e5c62ec17"},{"reference":"Practitioner/ec912427-e9d5-4136-8b1c-0065589decf7"}]},"request":{"method":"PUT","url":"MeasureReport/5a511399-a722-471d-adac-2722f179ccde"}}]}