{"resourceType":"Bundle","id":"tests-81c8d495-352a-4f5b-ad42-88b6c83aea1d-bundle","type":"transaction","entry":[{"fullUrl":"https://madie.cms.gov/Patient/81c8d495-352a-4f5b-ad42-88b6c83aea1d","resource":{"resourceType":"Patient","id":"81c8d495-352a-4f5b-ad42-88b6c83aea1d","meta":{"profile":["http://hl7.org/fhir/us/qicore/StructureDefinition/qicore-patient"]},"text":{"status":"generated","div":"<div xmlns=\"http://www.w3.org/1999/xhtml\"><div class=\"hapiHeaderText\">RISKSBPRelDtTimeEQDelStart <b>RISKFail </b></div><table class=\"hapiPropertyTable\"><tbody><tr><td>Date of birth</td><td><span>01 February 2004</span></td></tr></tbody></table></div>"},"extension":[{"url":"http://hl7.org/fhir/us/core/StructureDefinition/us-core-race","extension":[{"url":"ombCategory","valueCoding":{"system":"urn:oid:2.16.840.1.113883.6.238","code":"1002-5","display":"American Indian or Alaska Native","userSelected":true}},{"url":"text","valueString":"American Indian or Alaska Native"}]},{"url":"http://hl7.org/fhir/us/core/StructureDefinition/us-core-ethnicity","extension":[{"url":"ombCategory","valueCoding":{"system":"urn:oid:2.16.840.1.113883.6.238","code":"2135-2","display":"Hispanic or Latino","userSelected":true}},{"url":"text","valueString":"Hispanic or Latino"}]}],"identifier":[{"type":{"coding":[{"system":"http://terminology.hl7.org/CodeSystem/v2-0203","code":"MR"}]},"system":"https://bonnie-fhir.healthit.gov/","value":"63598dd9c35f1c19df09adbd"}],"active":true,"name":[{"use":"usual","family":"RISKFail","given":["RISKSBPRelDtTimeEQDelStart"]}],"gender":"female","birthDate":"2004-02-01"},"request":{"method":"PUT","url":"Patient/81c8d495-352a-4f5b-ad42-88b6c83aea1d"}},{"fullUrl":"https://madie.cms.gov/Observation/3dbb37f8-001b-4891-add5-891d7610faf8","resource":{"resourceType":"Observation","id":"3dbb37f8-001b-4891-add5-891d7610faf8","meta":{"profile":["http://hl7.org/fhir/us/qicore/StructureDefinition/qicore-observation"]},"status":"final","category":[{"coding":[{"system":"http://terminology.hl7.org/CodeSystem/observation-category","code":"exam","display":"exam","userSelected":true}]}],"code":{"coding":[{"system":"http://loinc.org","code":"93857-1"}]},"subject":{"reference":"Patient/81c8d495-352a-4f5b-ad42-88b6c83aea1d"},"effectiveDateTime":"2024-02-01T08:00:00.000+00:00","valueDateTime":"2024-02-01T08:00:00+00:00"},"request":{"method":"PUT","url":"Observation/3dbb37f8-001b-4891-add5-891d7610faf8"}},{"fullUrl":"https://madie.cms.gov/Observation/661395ee-e3c8-40c1-a5da-a5f5e5d8fa92","resource":{"resourceType":"Observation","id":"661395ee-e3c8-40c1-a5da-a5f5e5d8fa92","meta":{"profile":["http://hl7.org/fhir/us/qicore/StructureDefinition/qicore-observation"]},"status":"final","category":[{"coding":[{"system":"http://terminology.hl7.org/CodeSystem/observation-category","code":"exam","display":"exam","userSelected":true}]}],"code":{"coding":[{"system":"http://loinc.org","code":"11884-4"}]},"subject":{"reference":"Patient/81c8d495-352a-4f5b-ad42-88b6c83aea1d"},"effectiveDateTime":"2024-02-01T08:00:00.000+00:00","valueQuantity":{"value":21,"system":"http://unitsofmeasure.org","code":"wk"}},"request":{"method":"PUT","url":"Observation/661395ee-e3c8-40c1-a5da-a5f5e5d8fa92"}},{"fullUrl":"https://madie.cms.gov/Encounter/678e35bc-1bad-4694-a592-8ed8a7c223ac","resource":{"resourceType":"Encounter","id":"678e35bc-1bad-4694-a592-8ed8a7c223ac","meta":{"profile":["http://hl7.org/fhir/us/qicore/StructureDefinition/qicore-encounter"]},"status":"finished","class":{"system":"http://terminology.hl7.org/CodeSystem/v3-ActCode","code":"IMP","display":"inpatient encounter"},"type":[{"coding":[{"system":"http://snomed.info/sct","code":"183452005"}]}],"subject":{"reference":"Patient/81c8d495-352a-4f5b-ad42-88b6c83aea1d"},"period":{"start":"2024-02-01T08:00:00.000+00:00","end":"2024-02-05T08:15:00.000+00:00"}},"request":{"method":"PUT","url":"Encounter/678e35bc-1bad-4694-a592-8ed8a7c223ac"}},{"fullUrl":"https://madie.cms.gov/Encounter/98e6a185-3270-4d0e-86f0-988f92cfa16f","resource":{"resourceType":"Encounter","id":"98e6a185-3270-4d0e-86f0-988f92cfa16f","meta":{"profile":["http://hl7.org/fhir/us/qicore/StructureDefinition/qicore-encounter"]},"status":"finished","class":{"system":"http://terminology.hl7.org/CodeSystem/v3-ActCode","code":"EMER","display":"emergency"},"type":[{"coding":[{"system":"http://snomed.info/sct","code":"4525004"}]}],"subject":{"reference":"Patient/81c8d495-352a-4f5b-ad42-88b6c83aea1d"},"period":{"start":"2024-02-01T07:00:00.000+00:00","end":"2024-02-01T07:59:00.000+00:00"}},"request":{"method":"PUT","url":"Encounter/98e6a185-3270-4d0e-86f0-988f92cfa16f"}},{"fullUrl":"https://madie.cms.gov/Procedure/d827f490-16eb-4962-ab1e-812af0c8b6d5","resource":{"resourceType":"Procedure","id":"d827f490-16eb-4962-ab1e-812af0c8b6d5","meta":{"profile":["http://hl7.org/fhir/us/qicore/StructureDefinition/qicore-procedure"]},"extension":[{"url":"http://hl7.org/fhir/us/qicore/StructureDefinition/qicore-recorded","valueDateTime":"2024-02-04T09:35:00-04:00"}],"status":"completed","code":{"coding":[{"system":"http://snomed.info/sct","code":"10745001"}]},"subject":{"reference":"Patient/81c8d495-352a-4f5b-ad42-88b6c83aea1d"},"performedPeriod":{"start":"2024-02-01T08:00:00.000+00:00","end":"2024-02-05T08:15:00.000+00:00"}},"request":{"method":"PUT","url":"Procedure/d827f490-16eb-4962-ab1e-812af0c8b6d5"}},{"fullUrl":"https://madie.cms.gov/Observation/f3ce77ab-4fe6-4916-be78-e1b953f081e5","resource":{"resourceType":"Observation","id":"f3ce77ab-4fe6-4916-be78-e1b953f081e5","meta":{"profile":["http://hl7.org/fhir/StructureDefinition/bp"]},"status":"final","category":[{"coding":[{"system":"http://terminology.hl7.org/CodeSystem/observation-category","code":"vital-signs","display":"vital-signs","userSelected":true}]}],"code":{"coding":[{"system":"http://loinc.org","code":"85354-9","display":"Blood pressure panel with all children optional"}]},"subject":{"reference":"Patient/81c8d495-352a-4f5b-ad42-88b6c83aea1d"},"effectiveDateTime":"2024-02-01T08:00:00.000+00:00","component":[{"code":{"coding":[{"system":"http://loinc.org","code":"8480-6","display":"Systolic blood pressure"}]},"valueQuantity":{"value":165,"unit":"mmHg","system":"http://unitsofmeasure.org","code":"mm[Hg]"}},{"code":{"coding":[{"system":"http://loinc.org","code":"8462-4","display":"Diastolic blood pressure"}]},"valueQuantity":{"value":85,"unit":"mmHg","system":"http://unitsofmeasure.org","code":"mm[Hg]"}}]},"request":{"method":"PUT","url":"Observation/f3ce77ab-4fe6-4916-be78-e1b953f081e5"}},{"fullUrl":"https://madie.cms.gov/MeasureReport/86e2bf49-f1b3-423a-ae88-09b4d76ed976","resource":{"resourceType":"MeasureReport","id":"86e2bf49-f1b3-423a-ae88-09b4d76ed976","meta":{"profile":["http://hl7.org/fhir/us/cqfmeasures/StructureDefinition/test-case-cqfm"]},"contained":[{"resourceType":"Parameters","id":"d60c72d7-e5df-4716-82dc-4ced01e68627-parameters","parameter":[{"name":"subject","valueString":"81c8d495-352a-4f5b-ad42-88b6c83aea1d"}]}],"extension":[{"url":"http://hl7.org/fhir/us/cqfmeasures/StructureDefinition/cqfm-inputParameters","valueReference":{"reference":"#d60c72d7-e5df-4716-82dc-4ced01e68627-parameters"}},{"url":"http://hl7.org/fhir/us/cqfmeasures/StructureDefinition/cqfm-testCaseDescription","valueMarkdown":"Patient with systolic BP relevant date/time = delivery date/time \n"}],"modifierExtension":[{"url":"http://hl7.org/fhir/us/cqfmeasures/StructureDefinition/cqfm-isTestCase","valueBoolean":true}],"status":"complete","type":"individual","measure":"https://madie.cms.gov/Measure/SevereObstetricComplicationsFHIR","period":{"start":"2024-01-01","end":"2024-12-31"},"group":[{"population":[{"code":{"coding":[{"system":"http://terminology.hl7.org/CodeSystem/measure-population","code":"initial-population","display":"Initial Population"}]},"count":1},{"code":{"coding":[{"system":"http://terminology.hl7.org/CodeSystem/measure-population","code":"denominator","display":"Denominator"}]},"count":1},{"code":{"coding":[{"system":"http://terminology.hl7.org/CodeSystem/measure-population","code":"denominator-exclusion","display":"Denominator Exclusion"}]},"count":0},{"code":{"coding":[{"system":"http://terminology.hl7.org/CodeSystem/measure-population","code":"numerator","display":"Numerator"}]},"count":0}]}],"evaluatedResource":[{"reference":"Patient/81c8d495-352a-4f5b-ad42-88b6c83aea1d"},{"reference":"Observation/3dbb37f8-001b-4891-add5-891d7610faf8"},{"reference":"Observation/661395ee-e3c8-40c1-a5da-a5f5e5d8fa92"},{"reference":"Encounter/678e35bc-1bad-4694-a592-8ed8a7c223ac"},{"reference":"Encounter/98e6a185-3270-4d0e-86f0-988f92cfa16f"},{"reference":"Procedure/d827f490-16eb-4962-ab1e-812af0c8b6d5"},{"reference":"Observation/f3ce77ab-4fe6-4916-be78-e1b953f081e5"}]},"request":{"method":"PUT","url":"MeasureReport/86e2bf49-f1b3-423a-ae88-09b4d76ed976"}}]}