{"resourceType":"Bundle","id":"tests-6b78a543-eea4-4987-a1ad-f941126b597c-bundle","type":"transaction","entry":[{"fullUrl":"https://madie.cms.gov/Patient/6b78a543-eea4-4987-a1ad-f941126b597c","resource":{"resourceType":"Patient","id":"6b78a543-eea4-4987-a1ad-f941126b597c","meta":{"profile":["http://hl7.org/fhir/us/qicore/StructureDefinition/qicore-patient"]},"text":{"status":"generated","div":"<div xmlns=\"http://www.w3.org/1999/xhtml\"><div class=\"hapiHeaderText\">Risk_PlacentalAccretaSpectrum <b>RISKPass </b></div><table class=\"hapiPropertyTable\"><tbody><tr><td>Date of birth</td><td><span>01 February 2004</span></td></tr></tbody></table></div>"},"extension":[{"url":"http://hl7.org/fhir/us/core/StructureDefinition/us-core-race","extension":[{"url":"ombCategory","valueCoding":{"system":"urn:oid:2.16.840.1.113883.6.238","code":"1002-5","display":"American Indian or Alaska Native","userSelected":true}},{"url":"text","valueString":"American Indian or Alaska Native"}]},{"url":"http://hl7.org/fhir/us/core/StructureDefinition/us-core-ethnicity","extension":[{"url":"ombCategory","valueCoding":{"system":"urn:oid:2.16.840.1.113883.6.238","code":"2135-2","display":"Hispanic or Latino","userSelected":true}},{"url":"text","valueString":"Hispanic or Latino"}]}],"identifier":[{"type":{"coding":[{"system":"http://terminology.hl7.org/CodeSystem/v2-0203","code":"MR"}]},"system":"https://bonnie-fhir.healthit.gov/","value":"63594c7a6aee9629c82981df"}],"active":true,"name":[{"use":"usual","family":"RiskPass","given":["Risk_PlacentalAccretaSpectrum"]}],"gender":"female","birthDate":"2004-02-01"},"request":{"method":"PUT","url":"Patient/6b78a543-eea4-4987-a1ad-f941126b597c"}},{"fullUrl":"https://madie.cms.gov/Observation/02a89800-4389-483c-916b-0eebe33bbd37","resource":{"resourceType":"Observation","id":"02a89800-4389-483c-916b-0eebe33bbd37","meta":{"profile":["http://hl7.org/fhir/us/qicore/StructureDefinition/qicore-observation"]},"status":"final","category":[{"coding":[{"system":"http://terminology.hl7.org/CodeSystem/observation-category","code":"exam","display":"exam","userSelected":true}]}],"code":{"coding":[{"system":"http://loinc.org","code":"93857-1"}]},"subject":{"reference":"Patient/6b78a543-eea4-4987-a1ad-f941126b597c"},"effectiveDateTime":"2024-02-01T08:00:00.000+00:00","valueDateTime":"2024-02-01T08:00:00+00:00"},"request":{"method":"PUT","url":"Observation/02a89800-4389-483c-916b-0eebe33bbd37"}},{"fullUrl":"https://madie.cms.gov/Observation/c5710475-8ecf-479e-8b75-81f7a61a4ade","resource":{"resourceType":"Observation","id":"c5710475-8ecf-479e-8b75-81f7a61a4ade","meta":{"profile":["http://hl7.org/fhir/us/qicore/StructureDefinition/qicore-observation"]},"status":"final","category":[{"coding":[{"system":"http://terminology.hl7.org/CodeSystem/observation-category","code":"exam","display":"exam","userSelected":true}]}],"code":{"coding":[{"system":"http://loinc.org","code":"11778-8"}]},"subject":{"reference":"Patient/6b78a543-eea4-4987-a1ad-f941126b597c"},"effectiveDateTime":"2024-02-01T08:00:00.000+00:00","valueDateTime":"2024-02-01T00:00:00.000+00:00"},"request":{"method":"PUT","url":"Observation/c5710475-8ecf-479e-8b75-81f7a61a4ade"}},{"fullUrl":"https://madie.cms.gov/Encounter/c96b8a34-8caa-44a6-8bf9-9b7d8a4ae6da","resource":{"resourceType":"Encounter","id":"c96b8a34-8caa-44a6-8bf9-9b7d8a4ae6da","meta":{"profile":["http://hl7.org/fhir/us/qicore/StructureDefinition/qicore-encounter"]},"status":"finished","class":{"system":"http://terminology.hl7.org/CodeSystem/v3-ActCode","code":"IMP","display":"inpatient encounter"},"type":[{"coding":[{"system":"http://snomed.info/sct","code":"183452005"}]}],"subject":{"reference":"Patient/6b78a543-eea4-4987-a1ad-f941126b597c"},"period":{"start":"2024-02-01T08:00:00.000Z","end":"2024-02-05T08:15:00.000Z"},"diagnosis":[{"extension":[{"url":"http://hl7.org/fhir/us/qicore/StructureDefinition/qicore-encounter-diagnosisPresentOnAdmission","valueCodeableConcept":{"coding":[{"system":"https://www.cms.gov/Medicare/Medicare-Fee-for-Service-Payment/HospitalAcqCond/Coding","code":"Y"}]}}],"condition":{"reference":"Condition/0714fade-03d3-468a-8a05-8fd1d4438790"}},{"extension":[{"url":"http://hl7.org/fhir/us/qicore/StructureDefinition/qicore-encounter-diagnosisPresentOnAdmission","valueCodeableConcept":{"coding":[{"system":"https://www.cms.gov/Medicare/Medicare-Fee-for-Service-Payment/HospitalAcqCond/Coding","code":"N"}]}}],"condition":{"reference":"Condition/0c2dc636-faa1-492f-bf3b-37b67e332588"}}]},"request":{"method":"PUT","url":"Encounter/c96b8a34-8caa-44a6-8bf9-9b7d8a4ae6da"}},{"fullUrl":"https://madie.cms.gov/Procedure/2ec0e60d-c92e-4536-89d3-9833f386167f","resource":{"resourceType":"Procedure","id":"2ec0e60d-c92e-4536-89d3-9833f386167f","meta":{"profile":["http://hl7.org/fhir/us/qicore/StructureDefinition/qicore-procedure"]},"extension":[{"url":"http://hl7.org/fhir/us/qicore/StructureDefinition/qicore-recorded","valueDateTime":"2013-04-05T09:35:00-04:00"}],"status":"completed","code":{"coding":[{"system":"http://snomed.info/sct","code":"10745001"}]},"subject":{"reference":"Patient/6b78a543-eea4-4987-a1ad-f941126b597c"},"performedDateTime":"2024-02-01T08:00:00.000+00:00"},"request":{"method":"PUT","url":"Procedure/2ec0e60d-c92e-4536-89d3-9833f386167f"}},{"fullUrl":"https://madie.cms.gov/Condition/0c2dc636-faa1-492f-bf3b-37b67e332588","resource":{"resourceType":"Condition","id":"0c2dc636-faa1-492f-bf3b-37b67e332588","meta":{"profile":["http://hl7.org/fhir/us/qicore/StructureDefinition/qicore-condition"]},"category":[{"coding":[{"system":"http://terminology.hl7.org/CodeSystem/condition-category","code":"encounter-diagnosis","display":"Encounter Diagnosis"}]}],"code":{"coding":[{"system":"http://hl7.org/fhir/sid/icd-10-cm","version":"2023","code":"A32.7","display":"Listerial sepsis","userSelected":true}]},"subject":{"reference":"Patient/6b78a543-eea4-4987-a1ad-f941126b597c"},"recordedDate":"2024-10-26T08:00:00.000+00:00"},"request":{"method":"PUT","url":"Condition/0c2dc636-faa1-492f-bf3b-37b67e332588"}},{"fullUrl":"https://madie.cms.gov/Condition/0714fade-03d3-468a-8a05-8fd1d4438790","resource":{"resourceType":"Condition","id":"0714fade-03d3-468a-8a05-8fd1d4438790","meta":{"profile":["http://hl7.org/fhir/us/qicore/StructureDefinition/qicore-condition"]},"category":[{"coding":[{"system":"http://terminology.hl7.org/CodeSystem/condition-category","code":"encounter-diagnosis","display":"Encounter Diagnosis"}]}],"code":{"coding":[{"system":"http://hl7.org/fhir/sid/icd-10-cm","version":"2023","code":"O43.213","display":"Placental Accreta Spectrum","userSelected":true}]},"subject":{"reference":"Patient/6b78a543-eea4-4987-a1ad-f941126b597c"},"recordedDate":"2024-10-26T08:00:00.000+00:00"},"request":{"method":"PUT","url":"Condition/0714fade-03d3-468a-8a05-8fd1d4438790"}},{"fullUrl":"https://madie.cms.gov/MeasureReport/3033635f-f4c0-4beb-81cf-dcf77c28139b","resource":{"resourceType":"MeasureReport","id":"3033635f-f4c0-4beb-81cf-dcf77c28139b","meta":{"profile":["http://hl7.org/fhir/us/cqfmeasures/StructureDefinition/test-case-cqfm"]},"contained":[{"resourceType":"Parameters","id":"912b5bb4-6a25-41ee-9f7d-64cdace62864-parameters","parameter":[{"name":"subject","valueString":"6b78a543-eea4-4987-a1ad-f941126b597c"}]}],"extension":[{"url":"http://hl7.org/fhir/us/cqfmeasures/StructureDefinition/cqfm-inputParameters","valueReference":{"reference":"#912b5bb4-6a25-41ee-9f7d-64cdace62864-parameters"}},{"url":"http://hl7.org/fhir/us/cqfmeasures/StructureDefinition/cqfm-testCaseDescription","valueMarkdown":"\"Relevant date/Time of delivery (based on assessment performed) is equal to the inpatient end.  Risk variable of placental accreta spectrum\n.\"\n"}],"modifierExtension":[{"url":"http://hl7.org/fhir/us/cqfmeasures/StructureDefinition/cqfm-isTestCase","valueBoolean":true}],"status":"complete","type":"individual","measure":"https://madie.cms.gov/Measure/SevereObstetricComplicationsFHIR","period":{"start":"2024-01-01","end":"2024-12-31"},"group":[{"population":[{"code":{"coding":[{"system":"http://terminology.hl7.org/CodeSystem/measure-population","code":"initial-population","display":"Initial Population"}]},"count":1},{"code":{"coding":[{"system":"http://terminology.hl7.org/CodeSystem/measure-population","code":"denominator","display":"Denominator"}]},"count":1},{"code":{"coding":[{"system":"http://terminology.hl7.org/CodeSystem/measure-population","code":"denominator-exclusion","display":"Denominator Exclusion"}]},"count":0},{"code":{"coding":[{"system":"http://terminology.hl7.org/CodeSystem/measure-population","code":"numerator","display":"Numerator"}]},"count":1}]}],"evaluatedResource":[{"reference":"Patient/6b78a543-eea4-4987-a1ad-f941126b597c"},{"reference":"Observation/02a89800-4389-483c-916b-0eebe33bbd37"},{"reference":"Observation/c5710475-8ecf-479e-8b75-81f7a61a4ade"},{"reference":"Encounter/c96b8a34-8caa-44a6-8bf9-9b7d8a4ae6da"},{"reference":"Procedure/2ec0e60d-c92e-4536-89d3-9833f386167f"},{"reference":"Condition/0c2dc636-faa1-492f-bf3b-37b67e332588"},{"reference":"Condition/0714fade-03d3-468a-8a05-8fd1d4438790"}]},"request":{"method":"PUT","url":"MeasureReport/3033635f-f4c0-4beb-81cf-dcf77c28139b"}}]}