{"resourceType":"Bundle","id":"tests-72d29278-ddf6-47fe-a9a1-bed6944e170e-bundle","type":"transaction","entry":[{"fullUrl":"https://madie.cms.gov/Patient/72d29278-ddf6-47fe-a9a1-bed6944e170e","resource":{"resourceType":"Patient","id":"72d29278-ddf6-47fe-a9a1-bed6944e170e","meta":{"profile":["http://hl7.org/fhir/us/qicore/StructureDefinition/qicore-patient"]},"text":{"status":"generated","div":"<div xmlns=\"http://www.w3.org/1999/xhtml\"><div class=\"hapiHeaderText\">Risk_OtherPreEclampsia<b>RISKPass </b></div><table class=\"hapiPropertyTable\"><tbody><tr><td>Date of birth</td><td><span>01 February 2004</span></td></tr></tbody></table></div>"},"extension":[{"url":"http://hl7.org/fhir/us/core/StructureDefinition/us-core-race","extension":[{"url":"ombCategory","valueCoding":{"system":"urn:oid:2.16.840.1.113883.6.238","code":"1002-5","display":"American Indian or Alaska Native","userSelected":true}},{"url":"text","valueString":"American Indian or Alaska Native"}]},{"url":"http://hl7.org/fhir/us/core/StructureDefinition/us-core-ethnicity","extension":[{"url":"ombCategory","valueCoding":{"system":"urn:oid:2.16.840.1.113883.6.238","code":"2135-2","display":"Hispanic or Latino","userSelected":true}},{"url":"text","valueString":"Hispanic or Latino"}]}],"identifier":[{"type":{"coding":[{"system":"http://terminology.hl7.org/CodeSystem/v2-0203","code":"MR"}]},"system":"https://bonnie-fhir.healthit.gov/","value":"63594c7a6aee9629c82981df"}],"active":true,"name":[{"use":"usual","family":"RiskPass","given":["Risk_OtherPreEclampsia"]}],"gender":"female","birthDate":"2004-02-01"},"request":{"method":"PUT","url":"Patient/72d29278-ddf6-47fe-a9a1-bed6944e170e"}},{"fullUrl":"https://madie.cms.gov/Observation/3ff3e8e5-66fa-4f94-863e-9364d57229b2","resource":{"resourceType":"Observation","id":"3ff3e8e5-66fa-4f94-863e-9364d57229b2","meta":{"profile":["http://hl7.org/fhir/us/qicore/StructureDefinition/qicore-observation"]},"status":"final","category":[{"coding":[{"system":"http://terminology.hl7.org/CodeSystem/observation-category","code":"exam","display":"exam","userSelected":true}]}],"code":{"coding":[{"system":"http://loinc.org","code":"93857-1"}]},"subject":{"reference":"Patient/72d29278-ddf6-47fe-a9a1-bed6944e170e"},"effectiveDateTime":"2024-02-01T08:00:00.000+00:00","valueDateTime":"2024-02-01T08:00:00+00:00"},"request":{"method":"PUT","url":"Observation/3ff3e8e5-66fa-4f94-863e-9364d57229b2"}},{"fullUrl":"https://madie.cms.gov/Observation/9c66bbfd-75dc-4d12-92ab-a852d9f7c9e0","resource":{"resourceType":"Observation","id":"9c66bbfd-75dc-4d12-92ab-a852d9f7c9e0","meta":{"profile":["http://hl7.org/fhir/us/qicore/StructureDefinition/qicore-observation"]},"status":"final","category":[{"coding":[{"system":"http://terminology.hl7.org/CodeSystem/observation-category","code":"exam","display":"exam","userSelected":true}]}],"code":{"coding":[{"system":"http://loinc.org","code":"11778-8"}]},"subject":{"reference":"Patient/72d29278-ddf6-47fe-a9a1-bed6944e170e"},"effectiveDateTime":"2024-02-01T08:00:00.000+00:00","valueDateTime":"2024-02-01T00:00:00.000+00:00"},"request":{"method":"PUT","url":"Observation/9c66bbfd-75dc-4d12-92ab-a852d9f7c9e0"}},{"fullUrl":"https://madie.cms.gov/Encounter/ff6fb7af-4445-489d-b248-3287bf160ab0","resource":{"resourceType":"Encounter","id":"ff6fb7af-4445-489d-b248-3287bf160ab0","meta":{"profile":["http://hl7.org/fhir/us/qicore/StructureDefinition/qicore-encounter"]},"status":"finished","class":{"system":"http://terminology.hl7.org/CodeSystem/v3-ActCode","code":"IMP","display":"inpatient encounter"},"type":[{"coding":[{"system":"http://snomed.info/sct","code":"183452005"}]}],"subject":{"reference":"Patient/72d29278-ddf6-47fe-a9a1-bed6944e170e"},"period":{"start":"2024-02-01T08:00:00.000Z","end":"2024-02-05T08:15:00.000Z"},"diagnosis":[{"extension":[{"url":"http://hl7.org/fhir/us/qicore/StructureDefinition/qicore-encounter-diagnosisPresentOnAdmission","valueCodeableConcept":{"coding":[{"system":"https://www.cms.gov/Medicare/Medicare-Fee-for-Service-Payment/HospitalAcqCond/Coding","code":"Y"}]}}],"condition":{"reference":"Condition/e36be371-eb19-4aed-8afb-ae3853f8b5c0"}},{"extension":[{"url":"http://hl7.org/fhir/us/qicore/StructureDefinition/qicore-encounter-diagnosisPresentOnAdmission","valueCodeableConcept":{"coding":[{"system":"https://www.cms.gov/Medicare/Medicare-Fee-for-Service-Payment/HospitalAcqCond/Coding","code":"N"}]}}],"condition":{"reference":"Condition/da857572-f702-4748-8bba-3c9b967b0729"}}]},"request":{"method":"PUT","url":"Encounter/ff6fb7af-4445-489d-b248-3287bf160ab0"}},{"fullUrl":"https://madie.cms.gov/Procedure/019051aa-b541-4e7d-91f1-57a4bc40bc71","resource":{"resourceType":"Procedure","id":"019051aa-b541-4e7d-91f1-57a4bc40bc71","meta":{"profile":["http://hl7.org/fhir/us/qicore/StructureDefinition/qicore-procedure"]},"extension":[{"url":"http://hl7.org/fhir/us/qicore/StructureDefinition/qicore-recorded","valueDateTime":"2013-04-05T09:35:00-04:00"}],"status":"completed","code":{"coding":[{"system":"http://snomed.info/sct","code":"10745001"}]},"subject":{"reference":"Patient/72d29278-ddf6-47fe-a9a1-bed6944e170e"},"performedDateTime":"2024-02-01T08:00:00.000+00:00"},"request":{"method":"PUT","url":"Procedure/019051aa-b541-4e7d-91f1-57a4bc40bc71"}},{"fullUrl":"https://madie.cms.gov/Condition/da857572-f702-4748-8bba-3c9b967b0729","resource":{"resourceType":"Condition","id":"da857572-f702-4748-8bba-3c9b967b0729","meta":{"profile":["http://hl7.org/fhir/us/qicore/StructureDefinition/qicore-condition"]},"category":[{"coding":[{"system":"http://terminology.hl7.org/CodeSystem/condition-category","code":"encounter-diagnosis","display":"Encounter Diagnosis"}]}],"code":{"coding":[{"system":"http://hl7.org/fhir/sid/icd-10-cm","version":"2023","code":"A32.7","display":"Listerial sepsis","userSelected":true}]},"subject":{"reference":"Patient/72d29278-ddf6-47fe-a9a1-bed6944e170e"},"recordedDate":"2024-10-26T08:00:00.000+00:00"},"request":{"method":"PUT","url":"Condition/da857572-f702-4748-8bba-3c9b967b0729"}},{"fullUrl":"https://madie.cms.gov/Condition/e36be371-eb19-4aed-8afb-ae3853f8b5c0","resource":{"resourceType":"Condition","id":"e36be371-eb19-4aed-8afb-ae3853f8b5c0","meta":{"profile":["http://hl7.org/fhir/us/qicore/StructureDefinition/qicore-condition"]},"category":[{"coding":[{"system":"http://terminology.hl7.org/CodeSystem/condition-category","code":"encounter-diagnosis","display":"Encounter Diagnosis"}]}],"code":{"coding":[{"system":"http://hl7.org/fhir/sid/icd-10-cm","version":"2023","code":"O13.1","display":"Other PreEclampsia","userSelected":true}]},"subject":{"reference":"Patient/72d29278-ddf6-47fe-a9a1-bed6944e170e"},"recordedDate":"2024-10-26T08:00:00.000+00:00"},"request":{"method":"PUT","url":"Condition/e36be371-eb19-4aed-8afb-ae3853f8b5c0"}},{"fullUrl":"https://madie.cms.gov/MeasureReport/ae2ab903-a8a6-46a4-b020-44574bb8bdbe","resource":{"resourceType":"MeasureReport","id":"ae2ab903-a8a6-46a4-b020-44574bb8bdbe","meta":{"profile":["http://hl7.org/fhir/us/cqfmeasures/StructureDefinition/test-case-cqfm"]},"contained":[{"resourceType":"Parameters","id":"0a66ea5c-2aa2-4d36-9948-bfa88be3c64b-parameters","parameter":[{"name":"subject","valueString":"72d29278-ddf6-47fe-a9a1-bed6944e170e"}]}],"extension":[{"url":"http://hl7.org/fhir/us/cqfmeasures/StructureDefinition/cqfm-inputParameters","valueReference":{"reference":"#0a66ea5c-2aa2-4d36-9948-bfa88be3c64b-parameters"}},{"url":"http://hl7.org/fhir/us/cqfmeasures/StructureDefinition/cqfm-testCaseDescription","valueMarkdown":"Risk variable of other pre-eclampsia.\n\n"}],"modifierExtension":[{"url":"http://hl7.org/fhir/us/cqfmeasures/StructureDefinition/cqfm-isTestCase","valueBoolean":true}],"status":"complete","type":"individual","measure":"https://madie.cms.gov/Measure/SevereObstetricComplicationsFHIR","period":{"start":"2024-01-01","end":"2024-12-31"},"group":[{"population":[{"code":{"coding":[{"system":"http://terminology.hl7.org/CodeSystem/measure-population","code":"initial-population","display":"Initial Population"}]},"count":1},{"code":{"coding":[{"system":"http://terminology.hl7.org/CodeSystem/measure-population","code":"denominator","display":"Denominator"}]},"count":1},{"code":{"coding":[{"system":"http://terminology.hl7.org/CodeSystem/measure-population","code":"denominator-exclusion","display":"Denominator Exclusion"}]},"count":0},{"code":{"coding":[{"system":"http://terminology.hl7.org/CodeSystem/measure-population","code":"numerator","display":"Numerator"}]},"count":1}]}],"evaluatedResource":[{"reference":"Patient/72d29278-ddf6-47fe-a9a1-bed6944e170e"},{"reference":"Observation/3ff3e8e5-66fa-4f94-863e-9364d57229b2"},{"reference":"Observation/9c66bbfd-75dc-4d12-92ab-a852d9f7c9e0"},{"reference":"Encounter/ff6fb7af-4445-489d-b248-3287bf160ab0"},{"reference":"Procedure/019051aa-b541-4e7d-91f1-57a4bc40bc71"},{"reference":"Condition/da857572-f702-4748-8bba-3c9b967b0729"},{"reference":"Condition/e36be371-eb19-4aed-8afb-ae3853f8b5c0"}]},"request":{"method":"PUT","url":"MeasureReport/ae2ab903-a8a6-46a4-b020-44574bb8bdbe"}}]}