{"resourceType":"Bundle","id":"tests-7402a900-48e7-4c70-9331-1562d12569c7-bundle","type":"transaction","entry":[{"fullUrl":"https://madie.cms.gov/Patient/7402a900-48e7-4c70-9331-1562d12569c7","resource":{"resourceType":"Patient","id":"7402a900-48e7-4c70-9331-1562d12569c7","meta":{"profile":["http://hl7.org/fhir/us/qicore/StructureDefinition/qicore-patient"]},"text":{"status":"generated","div":"<div xmlns=\"http://www.w3.org/1999/xhtml\"><div class=\"hapiHeaderText\">LastAssPrfEstDELRelvTm2DaysB4DELRsltDtTime <b>DENOMPASS </b></div><table class=\"hapiPropertyTable\"><tbody><tr><td>Date of birth</td><td><span>01 February 1958</span></td></tr></tbody></table></div>"},"extension":[{"url":"http://hl7.org/fhir/us/core/StructureDefinition/us-core-race","extension":[{"url":"ombCategory","valueCoding":{"system":"urn:oid:2.16.840.1.113883.6.238","code":"1002-5","display":"American Indian or Alaska Native","userSelected":true}},{"url":"text","valueString":"American Indian or Alaska Native"}]},{"url":"http://hl7.org/fhir/us/core/StructureDefinition/us-core-ethnicity","extension":[{"url":"ombCategory","valueCoding":{"system":"urn:oid:2.16.840.1.113883.6.238","code":"2135-2","display":"Hispanic or Latino","userSelected":true}},{"url":"text","valueString":"Hispanic or Latino"}]}],"identifier":[{"type":{"coding":[{"system":"http://terminology.hl7.org/CodeSystem/v2-0203","code":"MR"}]},"system":"https://bonnie-fhir.healthit.gov/","value":"6356cb3054e383debade759c"}],"active":true,"name":[{"use":"usual","family":"DENOMFail","given":["LastAssPrfEDDRelvTm1MinOver42WksB4DELRsltDtTime  "]}],"gender":"female","birthDate":"1970-02-01"},"request":{"method":"PUT","url":"Patient/7402a900-48e7-4c70-9331-1562d12569c7"}},{"fullUrl":"https://madie.cms.gov/Observation/0f633b0b-82a0-42e7-b878-0f3ea6139263","resource":{"resourceType":"Observation","id":"0f633b0b-82a0-42e7-b878-0f3ea6139263","meta":{"profile":["http://hl7.org/fhir/us/qicore/StructureDefinition/qicore-observation"]},"status":"final","category":[{"coding":[{"system":"http://terminology.hl7.org/CodeSystem/observation-category","code":"exam","display":"exam","userSelected":true}]}],"code":{"coding":[{"system":"http://loinc.org","code":"93857-1"}]},"subject":{"reference":"Patient/7402a900-48e7-4c70-9331-1562d12569c7"},"effectiveDateTime":"2024-02-01T08:00:00.000+00:00","valueDateTime":"2024-02-01T08:00:00+00:00"},"request":{"method":"PUT","url":"Observation/0f633b0b-82a0-42e7-b878-0f3ea6139263"}},{"fullUrl":"https://madie.cms.gov/Observation/541ec9f5-bbd1-4518-84ce-b9026e1af86d","resource":{"resourceType":"Observation","id":"541ec9f5-bbd1-4518-84ce-b9026e1af86d","meta":{"profile":["http://hl7.org/fhir/us/qicore/StructureDefinition/qicore-observation"]},"status":"final","category":[{"coding":[{"system":"http://terminology.hl7.org/CodeSystem/observation-category","code":"exam","display":"exam","userSelected":true}]}],"code":{"coding":[{"system":"http://loinc.org","code":"11778-8"}]},"subject":{"reference":"Patient/7402a900-48e7-4c70-9331-1562d12569c7"},"effectiveDateTime":"2023-04-13T07:59:00.000+00:00","valueDateTime":"2024-02-01T08:00:00.000+00:00"},"request":{"method":"PUT","url":"Observation/541ec9f5-bbd1-4518-84ce-b9026e1af86d"}},{"fullUrl":"https://madie.cms.gov/Encounter/87e2679d-edec-4244-b39c-fc3966441acf","resource":{"resourceType":"Encounter","id":"87e2679d-edec-4244-b39c-fc3966441acf","meta":{"profile":["http://hl7.org/fhir/us/qicore/StructureDefinition/qicore-encounter"]},"status":"finished","class":{"system":"http://terminology.hl7.org/CodeSystem/v3-ActCode","code":"IMP","display":"inpatient encounter"},"type":[{"coding":[{"system":"http://snomed.info/sct","code":"183452005"}]}],"subject":{"reference":"Patient/7402a900-48e7-4c70-9331-1562d12569c7"},"period":{"start":"2024-01-30T08:00:00.000Z","end":"2024-02-05T08:15:00.000Z"}},"request":{"method":"PUT","url":"Encounter/87e2679d-edec-4244-b39c-fc3966441acf"}},{"fullUrl":"https://madie.cms.gov/Procedure/9020505a-b6c6-427c-87e9-2c9722b5ff1c","resource":{"resourceType":"Procedure","id":"9020505a-b6c6-427c-87e9-2c9722b5ff1c","meta":{"profile":["http://hl7.org/fhir/us/qicore/StructureDefinition/qicore-procedure"]},"extension":[{"url":"http://hl7.org/fhir/us/qicore/StructureDefinition/qicore-recorded","valueDateTime":"2013-04-05T09:35:00-04:00"}],"status":"completed","code":{"coding":[{"system":"http://snomed.info/sct","code":"10745001"}]},"subject":{"reference":"Patient/7402a900-48e7-4c70-9331-1562d12569c7"},"performedPeriod":{"start":"2024-02-01T08:00:00.000Z","end":"2024-02-05T08:15:00.000Z"}},"request":{"method":"PUT","url":"Procedure/9020505a-b6c6-427c-87e9-2c9722b5ff1c"}},{"fullUrl":"https://madie.cms.gov/Coverage/de20d276-e8fb-4274-9c3b-cff599a0e5b2","resource":{"resourceType":"Coverage","id":"de20d276-e8fb-4274-9c3b-cff599a0e5b2","meta":{"profile":["http://hl7.org/fhir/us/qicore/StructureDefinition/qicore-coverage"]},"status":"active","beneficiary":{"reference":"Patient/7402a900-48e7-4c70-9331-1562d12569c7"},"payor":[{"reference":"Organization/b8478a6b-61b3-49a6-9ac6-d401b7cf69a7"}]},"request":{"method":"PUT","url":"Coverage/de20d276-e8fb-4274-9c3b-cff599a0e5b2"}},{"fullUrl":"https://madie.cms.gov/Organization/b8478a6b-61b3-49a6-9ac6-d401b7cf69a7","resource":{"resourceType":"Organization","id":"b8478a6b-61b3-49a6-9ac6-d401b7cf69a7","meta":{"profile":["http://hl7.org/fhir/us/qicore/StructureDefinition/qicore-organization"]},"identifier":[{"use":"temp","system":"urn:oid:2.16.840.1.113883.4.4","value":"21-3259825"}],"active":true,"type":[{"coding":[{"system":"http://terminology.hl7.org/CodeSystem/organization-type","code":"pay","display":"Payer"}]}],"name":"Blue Cross Blue Shield of Texas","telecom":[{"system":"phone","value":"(+1) 972-766-6900"}],"address":[{"use":"billing","type":"postal","line":["P.O. Box 660044"],"city":"Dallas","state":"TX","postalCode":"75266-0044","country":"USA"}]},"request":{"method":"PUT","url":"Organization/b8478a6b-61b3-49a6-9ac6-d401b7cf69a7"}},{"fullUrl":"https://madie.cms.gov/Practitioner/48da6925-9148-4f75-acde-b935588d0083","resource":{"resourceType":"Practitioner","id":"48da6925-9148-4f75-acde-b935588d0083","identifier":[{"system":"http://hl7.org/fhir/sid/us-npi","value":"123456"}],"name":[{"family":"Evil","prefix":["Dr"]}]},"request":{"method":"PUT","url":"Practitioner/48da6925-9148-4f75-acde-b935588d0083"}},{"fullUrl":"https://madie.cms.gov/MeasureReport/6f1a31ce-609f-404d-88ab-84f08bfc85ae","resource":{"resourceType":"MeasureReport","id":"6f1a31ce-609f-404d-88ab-84f08bfc85ae","meta":{"profile":["http://hl7.org/fhir/us/cqfmeasures/StructureDefinition/test-case-cqfm"]},"contained":[{"resourceType":"Parameters","id":"f1aef9b5-69f9-435b-be28-1406ff8a85b7-parameters","parameter":[{"name":"subject","valueString":"7402a900-48e7-4c70-9331-1562d12569c7"}]}],"extension":[{"url":"http://hl7.org/fhir/us/cqfmeasures/StructureDefinition/cqfm-inputParameters","valueReference":{"reference":"#f1aef9b5-69f9-435b-be28-1406ff8a85b7-parameters"}},{"url":"http://hl7.org/fhir/us/cqfmeasures/StructureDefinition/cqfm-testCaseDescription","valueMarkdown":"Last assessment Performed, Estimated Delivery Date, Relevant time, 1 minute over 42 weeks before Delivery Result Date/Time\n"}],"modifierExtension":[{"url":"http://hl7.org/fhir/us/cqfmeasures/StructureDefinition/cqfm-isTestCase","valueBoolean":true}],"status":"complete","type":"individual","measure":"https://madie.cms.gov/Measure/SevereObstetricComplicationsFHIR","period":{"start":"2024-01-01","end":"2024-12-31"},"group":[{"population":[{"code":{"coding":[{"system":"http://terminology.hl7.org/CodeSystem/measure-population","code":"initial-population","display":"Initial Population"}]},"count":1},{"code":{"coding":[{"system":"http://terminology.hl7.org/CodeSystem/measure-population","code":"denominator","display":"Denominator"}]},"count":0},{"code":{"coding":[{"system":"http://terminology.hl7.org/CodeSystem/measure-population","code":"denominator-exclusion","display":"Denominator Exclusion"}]},"count":0},{"code":{"coding":[{"system":"http://terminology.hl7.org/CodeSystem/measure-population","code":"numerator","display":"Numerator"}]},"count":0}]}],"evaluatedResource":[{"reference":"Patient/7402a900-48e7-4c70-9331-1562d12569c7"},{"reference":"Observation/0f633b0b-82a0-42e7-b878-0f3ea6139263"},{"reference":"Observation/541ec9f5-bbd1-4518-84ce-b9026e1af86d"},{"reference":"Encounter/87e2679d-edec-4244-b39c-fc3966441acf"},{"reference":"Procedure/9020505a-b6c6-427c-87e9-2c9722b5ff1c"},{"reference":"Coverage/de20d276-e8fb-4274-9c3b-cff599a0e5b2"},{"reference":"Organization/b8478a6b-61b3-49a6-9ac6-d401b7cf69a7"},{"reference":"Practitioner/48da6925-9148-4f75-acde-b935588d0083"}]},"request":{"method":"PUT","url":"MeasureReport/6f1a31ce-609f-404d-88ab-84f08bfc85ae"}}]}