{"resourceType":"Bundle","id":"tests-f97440a7-ac3b-4751-9cee-a6d60bdb335d-bundle","type":"transaction","entry":[{"fullUrl":"https://madie.cms.gov/Patient/f97440a7-ac3b-4751-9cee-a6d60bdb335d","resource":{"resourceType":"Patient","id":"f97440a7-ac3b-4751-9cee-a6d60bdb335d","meta":{"profile":["http://hl7.org/fhir/us/qicore/StructureDefinition/qicore-patient"]},"text":{"status":"generated","div":"<div xmlns=\"http://www.w3.org/1999/xhtml\"><div class=\"hapiHeaderText\">AssPrfDelRelvDtEQIPEnd <b>RISK=ASTHMA </b></div><table class=\"hapiPropertyTable\"><tbody><tr><td>Date of birth</td><td><span>01 February 2004</span></td></tr></tbody></table></div>"},"extension":[{"url":"http://hl7.org/fhir/us/core/StructureDefinition/us-core-race","extension":[{"url":"ombCategory","valueCoding":{"system":"urn:oid:2.16.840.1.113883.6.238","code":"1002-5","display":"American Indian or Alaska Native","userSelected":true}},{"url":"text","valueString":"American Indian or Alaska Native"}]},{"url":"http://hl7.org/fhir/us/core/StructureDefinition/us-core-ethnicity","extension":[{"url":"ombCategory","valueCoding":{"system":"urn:oid:2.16.840.1.113883.6.238","code":"2135-2","display":"Hispanic or Latino","userSelected":true}},{"url":"text","valueString":"Hispanic or Latino"}]}],"identifier":[{"type":{"coding":[{"system":"http://terminology.hl7.org/CodeSystem/v2-0203","code":"MR"}]},"system":"https://bonnie-fhir.healthit.gov/","value":"63594c7a6aee9629c82981df"}],"active":true,"name":[{"use":"usual","family":"RiskFail","given":["Risk_Anemia_RiskVariablePOAisNo"]}],"gender":"female","birthDate":"2004-02-01"},"request":{"method":"PUT","url":"Patient/f97440a7-ac3b-4751-9cee-a6d60bdb335d"}},{"fullUrl":"https://madie.cms.gov/Observation/e5ff89b1-b658-40d8-b4f4-c47845bca51e","resource":{"resourceType":"Observation","id":"e5ff89b1-b658-40d8-b4f4-c47845bca51e","meta":{"profile":["http://hl7.org/fhir/us/qicore/StructureDefinition/qicore-observation"]},"status":"final","category":[{"coding":[{"system":"http://terminology.hl7.org/CodeSystem/observation-category","code":"exam","display":"exam","userSelected":true}]}],"code":{"coding":[{"system":"http://loinc.org","code":"93857-1"}]},"subject":{"reference":"Patient/f97440a7-ac3b-4751-9cee-a6d60bdb335d"},"effectiveDateTime":"2024-02-01T08:00:00.000+00:00","valueDateTime":"2024-02-01T08:00:00+00:00"},"request":{"method":"PUT","url":"Observation/e5ff89b1-b658-40d8-b4f4-c47845bca51e"}},{"fullUrl":"https://madie.cms.gov/Observation/7becafed-211d-4579-a42b-810368fa7898","resource":{"resourceType":"Observation","id":"7becafed-211d-4579-a42b-810368fa7898","meta":{"profile":["http://hl7.org/fhir/us/qicore/StructureDefinition/qicore-observation"]},"status":"final","category":[{"coding":[{"system":"http://terminology.hl7.org/CodeSystem/observation-category","code":"exam","display":"exam","userSelected":true}]}],"code":{"coding":[{"system":"http://loinc.org","code":"11778-8"}]},"subject":{"reference":"Patient/f97440a7-ac3b-4751-9cee-a6d60bdb335d"},"effectiveDateTime":"2024-02-01T08:00:00.000+00:00","valueDateTime":"2024-02-01T00:00:00.000+00:00"},"request":{"method":"PUT","url":"Observation/7becafed-211d-4579-a42b-810368fa7898"}},{"fullUrl":"https://madie.cms.gov/Encounter/94d434b7-4508-4f49-bf12-adda68bccae5","resource":{"resourceType":"Encounter","id":"94d434b7-4508-4f49-bf12-adda68bccae5","meta":{"profile":["http://hl7.org/fhir/us/qicore/StructureDefinition/qicore-encounter"]},"status":"finished","class":{"system":"http://terminology.hl7.org/CodeSystem/v3-ActCode","code":"IMP","display":"inpatient encounter"},"type":[{"coding":[{"system":"http://snomed.info/sct","code":"183452005"}]}],"subject":{"reference":"Patient/f97440a7-ac3b-4751-9cee-a6d60bdb335d"},"period":{"start":"2024-02-01T08:00:00.000Z","end":"2024-02-05T08:15:00.000Z"},"diagnosis":[{"extension":[{"url":"http://hl7.org/fhir/us/qicore/StructureDefinition/qicore-encounter-diagnosisPresentOnAdmission","valueCodeableConcept":{"coding":[{"system":"https://www.cms.gov/Medicare/Medicare-Fee-for-Service-Payment/HospitalAcqCond/Coding","code":"N"}]}}],"condition":{"reference":"Condition/37c5ddff-914a-421d-8e88-41779e20a3fb"}},{"extension":[{"url":"http://hl7.org/fhir/us/qicore/StructureDefinition/qicore-encounter-diagnosisPresentOnAdmission","valueCodeableConcept":{"coding":[{"system":"https://www.cms.gov/Medicare/Medicare-Fee-for-Service-Payment/HospitalAcqCond/Coding","code":"N"}]}}],"condition":{"reference":"Condition/b45ef600-07ac-4543-bba4-cfb1241bc31d"}}]},"request":{"method":"PUT","url":"Encounter/94d434b7-4508-4f49-bf12-adda68bccae5"}},{"fullUrl":"https://madie.cms.gov/Procedure/516026c8-4581-4a84-a55d-e3d9746b4cb3","resource":{"resourceType":"Procedure","id":"516026c8-4581-4a84-a55d-e3d9746b4cb3","meta":{"profile":["http://hl7.org/fhir/us/qicore/StructureDefinition/qicore-procedure"]},"extension":[{"url":"http://hl7.org/fhir/us/qicore/StructureDefinition/qicore-recorded","valueDateTime":"2013-04-05T09:35:00-04:00"}],"status":"completed","code":{"coding":[{"system":"http://snomed.info/sct","code":"10745001"}]},"subject":{"reference":"Patient/f97440a7-ac3b-4751-9cee-a6d60bdb335d"},"performedDateTime":"2024-02-01T08:00:00.000+00:00"},"request":{"method":"PUT","url":"Procedure/516026c8-4581-4a84-a55d-e3d9746b4cb3"}},{"fullUrl":"https://madie.cms.gov/Condition/b45ef600-07ac-4543-bba4-cfb1241bc31d","resource":{"resourceType":"Condition","id":"b45ef600-07ac-4543-bba4-cfb1241bc31d","meta":{"profile":["http://hl7.org/fhir/us/qicore/StructureDefinition/qicore-condition"]},"category":[{"coding":[{"system":"http://terminology.hl7.org/CodeSystem/condition-category","code":"encounter-diagnosis","display":"Encounter Diagnosis"}]}],"code":{"coding":[{"system":"http://hl7.org/fhir/sid/icd-10-cm","version":"2023","code":"A32.7","display":"Listerial sepsis","userSelected":true}]},"subject":{"reference":"Patient/f97440a7-ac3b-4751-9cee-a6d60bdb335d"},"recordedDate":"2024-10-26T08:00:00.000+00:00"},"request":{"method":"PUT","url":"Condition/b45ef600-07ac-4543-bba4-cfb1241bc31d"}},{"fullUrl":"https://madie.cms.gov/Condition/37c5ddff-914a-421d-8e88-41779e20a3fb","resource":{"resourceType":"Condition","id":"37c5ddff-914a-421d-8e88-41779e20a3fb","meta":{"profile":["http://hl7.org/fhir/us/qicore/StructureDefinition/qicore-condition"]},"category":[{"coding":[{"system":"http://terminology.hl7.org/CodeSystem/condition-category","code":"encounter-diagnosis","display":"Encounter Diagnosis"}]}],"code":{"coding":[{"system":"http://hl7.org/fhir/sid/icd-10-cm","version":"2023","code":"D50.1","display":"Anemia","userSelected":true}]},"subject":{"reference":"Patient/f97440a7-ac3b-4751-9cee-a6d60bdb335d"},"recordedDate":"2024-10-26T08:00:00.000+00:00"},"request":{"method":"PUT","url":"Condition/37c5ddff-914a-421d-8e88-41779e20a3fb"}},{"fullUrl":"https://madie.cms.gov/MeasureReport/b70a9407-bbd6-43c5-95b7-4707de8a9425","resource":{"resourceType":"MeasureReport","id":"b70a9407-bbd6-43c5-95b7-4707de8a9425","meta":{"profile":["http://hl7.org/fhir/us/cqfmeasures/StructureDefinition/test-case-cqfm"]},"contained":[{"resourceType":"Parameters","id":"c89bca1b-c2eb-424d-831a-ad2cbbeac77c-parameters","parameter":[{"name":"subject","valueString":"f97440a7-ac3b-4751-9cee-a6d60bdb335d"}]}],"extension":[{"url":"http://hl7.org/fhir/us/cqfmeasures/StructureDefinition/cqfm-inputParameters","valueReference":{"reference":"#c89bca1b-c2eb-424d-831a-ad2cbbeac77c-parameters"}},{"url":"http://hl7.org/fhir/us/cqfmeasures/StructureDefinition/cqfm-testCaseDescription","valueMarkdown":"Risk variable of anemia.  POA is No."}],"modifierExtension":[{"url":"http://hl7.org/fhir/us/cqfmeasures/StructureDefinition/cqfm-isTestCase","valueBoolean":true}],"status":"complete","type":"individual","measure":"https://madie.cms.gov/Measure/SevereObstetricComplicationsFHIR","period":{"start":"2024-01-01","end":"2024-12-31"},"group":[{"population":[{"code":{"coding":[{"system":"http://terminology.hl7.org/CodeSystem/measure-population","code":"initial-population","display":"Initial Population"}]},"count":1},{"code":{"coding":[{"system":"http://terminology.hl7.org/CodeSystem/measure-population","code":"denominator","display":"Denominator"}]},"count":1},{"code":{"coding":[{"system":"http://terminology.hl7.org/CodeSystem/measure-population","code":"denominator-exclusion","display":"Denominator Exclusion"}]},"count":0},{"code":{"coding":[{"system":"http://terminology.hl7.org/CodeSystem/measure-population","code":"numerator","display":"Numerator"}]},"count":1}]}],"evaluatedResource":[{"reference":"Patient/f97440a7-ac3b-4751-9cee-a6d60bdb335d"},{"reference":"Observation/e5ff89b1-b658-40d8-b4f4-c47845bca51e"},{"reference":"Observation/7becafed-211d-4579-a42b-810368fa7898"},{"reference":"Encounter/94d434b7-4508-4f49-bf12-adda68bccae5"},{"reference":"Procedure/516026c8-4581-4a84-a55d-e3d9746b4cb3"},{"reference":"Condition/b45ef600-07ac-4543-bba4-cfb1241bc31d"},{"reference":"Condition/37c5ddff-914a-421d-8e88-41779e20a3fb"}]},"request":{"method":"PUT","url":"MeasureReport/b70a9407-bbd6-43c5-95b7-4707de8a9425"}}]}