{"resourceType":"Bundle","id":"tests-e31ab824-c795-438d-a0ac-f5b2629f983f-bundle","type":"transaction","entry":[{"fullUrl":"https://madie.cms.gov/Patient/e31ab824-c795-438d-a0ac-f5b2629f983f","resource":{"resourceType":"Patient","id":"e31ab824-c795-438d-a0ac-f5b2629f983f","meta":{"profile":["http://hl7.org/fhir/us/qicore/StructureDefinition/qicore-patient"]},"text":{"status":"generated","div":"<div xmlns=\"http://www.w3.org/1999/xhtml\"><div class=\"hapiHeaderText\">DelProcStart=EncEnd <b>IPPASS </b></div><table class=\"hapiPropertyTable\"><tbody><tr><td>Date of birth</td><td><span>31 January 2004</span></td></tr></tbody></table></div>"},"extension":[{"url":"http://hl7.org/fhir/us/core/StructureDefinition/us-core-race","extension":[{"url":"ombCategory","valueCoding":{"system":"urn:oid:2.16.840.1.113883.6.238","code":"1002-5","display":"American Indian or Alaska Native","userSelected":true}},{"url":"text","valueString":"American Indian or Alaska Native"}]},{"url":"http://hl7.org/fhir/us/core/StructureDefinition/us-core-ethnicity","extension":[{"url":"ombCategory","valueCoding":{"system":"urn:oid:2.16.840.1.113883.6.238","code":"2135-2","display":"Hispanic or Latino","userSelected":true}},{"url":"text","valueString":"Hispanic or Latino"}]}],"identifier":[{"type":{"coding":[{"system":"http://terminology.hl7.org/CodeSystem/v2-0203","code":"MR"}]},"system":"https://bonnie-fhir.healthit.gov/","value":"633b3f9e0968f80122503cc6"}],"active":true,"name":[{"use":"usual","family":"IPPass","given":["DelProcStart_EncEnd"]}],"gender":"female","birthDate":"2004-01-31"},"request":{"method":"PUT","url":"Patient/e31ab824-c795-438d-a0ac-f5b2629f983f"}},{"fullUrl":"https://madie.cms.gov/Encounter/dd16d6b3-172c-4e72-bcb7-97bbc95d8c20","resource":{"resourceType":"Encounter","id":"dd16d6b3-172c-4e72-bcb7-97bbc95d8c20","meta":{"profile":["http://hl7.org/fhir/us/qicore/StructureDefinition/qicore-encounter"]},"status":"finished","class":{"system":"http://terminology.hl7.org/CodeSystem/v3-ActCode","code":"IMP","display":"inpatient encounter"},"type":[{"coding":[{"system":"http://snomed.info/sct","code":"183452005"}]}],"subject":{"reference":"Patient/e31ab824-c795-438d-a0ac-f5b2629f983f"},"period":{"start":"2024-02-01T08:00:00.000Z","end":"2024-02-05T08:15:00.000Z"}},"request":{"method":"PUT","url":"Encounter/dd16d6b3-172c-4e72-bcb7-97bbc95d8c20"}},{"fullUrl":"https://madie.cms.gov/Procedure/4ed86104-cf0f-418c-956e-52de421083f8","resource":{"resourceType":"Procedure","id":"4ed86104-cf0f-418c-956e-52de421083f8","meta":{"profile":["http://hl7.org/fhir/us/qicore/StructureDefinition/qicore-procedure"]},"extension":[{"url":"http://hl7.org/fhir/us/qicore/StructureDefinition/qicore-recorded","valueDateTime":"2013-04-05T09:35:00-04:00"}],"status":"completed","code":{"coding":[{"system":"http://snomed.info/sct","code":"10745001"}]},"subject":{"reference":"Patient/e31ab824-c795-438d-a0ac-f5b2629f983f"},"performedPeriod":{"start":"2024-02-05T08:15:00.000Z","end":"2024-02-05T08:15:00.000Z"}},"request":{"method":"PUT","url":"Procedure/4ed86104-cf0f-418c-956e-52de421083f8"}},{"fullUrl":"https://madie.cms.gov/Coverage/a538b7f6-6839-4e2e-83e8-847bb657052e","resource":{"resourceType":"Coverage","id":"a538b7f6-6839-4e2e-83e8-847bb657052e","meta":{"profile":["http://hl7.org/fhir/us/qicore/StructureDefinition/qicore-coverage"]},"status":"active","beneficiary":{"reference":"Patient/e31ab824-c795-438d-a0ac-f5b2629f983f"},"payor":[{"reference":"Organization/850d9a38-a77c-47ec-9162-b3e1c0a9f276"}]},"request":{"method":"PUT","url":"Coverage/a538b7f6-6839-4e2e-83e8-847bb657052e"}},{"fullUrl":"https://madie.cms.gov/Organization/850d9a38-a77c-47ec-9162-b3e1c0a9f276","resource":{"resourceType":"Organization","id":"850d9a38-a77c-47ec-9162-b3e1c0a9f276","meta":{"profile":["http://hl7.org/fhir/us/qicore/StructureDefinition/qicore-organization"]},"identifier":[{"use":"temp","system":"urn:oid:2.16.840.1.113883.4.4","value":"21-3259825"}],"active":true,"type":[{"coding":[{"system":"http://terminology.hl7.org/CodeSystem/organization-type","code":"pay","display":"Payer"}]}],"name":"Blue Cross Blue Shield of Texas","telecom":[{"system":"phone","value":"(+1) 972-766-6900"}],"address":[{"use":"billing","type":"postal","line":["P.O. Box 660044"],"city":"Dallas","state":"TX","postalCode":"75266-0044","country":"USA"}]},"request":{"method":"PUT","url":"Organization/850d9a38-a77c-47ec-9162-b3e1c0a9f276"}},{"fullUrl":"https://madie.cms.gov/Practitioner/4f140029-a794-47ce-b8d9-e87287cc3137","resource":{"resourceType":"Practitioner","id":"4f140029-a794-47ce-b8d9-e87287cc3137","identifier":[{"system":"http://hl7.org/fhir/sid/us-npi","value":"123456"}],"name":[{"family":"Evil","prefix":["Dr"]}]},"request":{"method":"PUT","url":"Practitioner/4f140029-a794-47ce-b8d9-e87287cc3137"}},{"fullUrl":"https://madie.cms.gov/MeasureReport/cf0dec6f-3e08-43e0-a7e4-cedc9883a0c7","resource":{"resourceType":"MeasureReport","id":"cf0dec6f-3e08-43e0-a7e4-cedc9883a0c7","meta":{"profile":["http://hl7.org/fhir/us/cqfmeasures/StructureDefinition/test-case-cqfm"]},"contained":[{"resourceType":"Parameters","id":"5ab6ac3c-75f7-4975-b28b-d8ba4e8d685b-parameters","parameter":[{"name":"subject","valueString":"e31ab824-c795-438d-a0ac-f5b2629f983f"}]}],"extension":[{"url":"http://hl7.org/fhir/us/cqfmeasures/StructureDefinition/cqfm-inputParameters","valueReference":{"reference":"#5ab6ac3c-75f7-4975-b28b-d8ba4e8d685b-parameters"}},{"url":"http://hl7.org/fhir/us/cqfmeasures/StructureDefinition/cqfm-testCaseDescription","valueMarkdown":"Delivery procedure start equals encounter end\n"}],"modifierExtension":[{"url":"http://hl7.org/fhir/us/cqfmeasures/StructureDefinition/cqfm-isTestCase","valueBoolean":true}],"status":"complete","type":"individual","measure":"https://madie.cms.gov/Measure/SevereObstetricComplicationsFHIR","period":{"start":"2024-01-01","end":"2024-12-31"},"group":[{"population":[{"code":{"coding":[{"system":"http://terminology.hl7.org/CodeSystem/measure-population","code":"initial-population","display":"Initial Population"}]},"count":1},{"code":{"coding":[{"system":"http://terminology.hl7.org/CodeSystem/measure-population","code":"denominator","display":"Denominator"}]},"count":0},{"code":{"coding":[{"system":"http://terminology.hl7.org/CodeSystem/measure-population","code":"denominator-exclusion","display":"Denominator Exclusion"}]},"count":0},{"code":{"coding":[{"system":"http://terminology.hl7.org/CodeSystem/measure-population","code":"numerator","display":"Numerator"}]},"count":0}]}],"evaluatedResource":[{"reference":"Patient/e31ab824-c795-438d-a0ac-f5b2629f983f"},{"reference":"Encounter/dd16d6b3-172c-4e72-bcb7-97bbc95d8c20"},{"reference":"Procedure/4ed86104-cf0f-418c-956e-52de421083f8"},{"reference":"Coverage/a538b7f6-6839-4e2e-83e8-847bb657052e"},{"reference":"Organization/850d9a38-a77c-47ec-9162-b3e1c0a9f276"},{"reference":"Practitioner/4f140029-a794-47ce-b8d9-e87287cc3137"}]},"request":{"method":"PUT","url":"MeasureReport/cf0dec6f-3e08-43e0-a7e4-cedc9883a0c7"}}]}