{"resourceType":"Bundle","id":"tests-a7510bad-5fee-4356-acf7-a5a1af58a8bb-bundle","type":"transaction","entry":[{"fullUrl":"https://madie.cms.gov/Patient/a7510bad-5fee-4356-acf7-a5a1af58a8bb","resource":{"resourceType":"Patient","id":"a7510bad-5fee-4356-acf7-a5a1af58a8bb","meta":{"profile":["http://hl7.org/fhir/us/qicore/StructureDefinition/qicore-patient"]},"text":{"status":"generated","div":"<div xmlns=\"http://www.w3.org/1999/xhtml\"><div class=\"hapiHeaderText\">Test3EDDMinutesImpactOnWksGest <b>DENOMPASS </b></div><table class=\"hapiPropertyTable\"><tbody><tr><td>Date of birth</td><td><span>01 February 1958</span></td></tr></tbody></table></div>"},"extension":[{"url":"http://hl7.org/fhir/us/core/StructureDefinition/us-core-race","extension":[{"url":"ombCategory","valueCoding":{"system":"urn:oid:2.16.840.1.113883.6.238","code":"1002-5","display":"American Indian or Alaska Native","userSelected":true}},{"url":"text","valueString":"American Indian or Alaska Native"}]},{"url":"http://hl7.org/fhir/us/core/StructureDefinition/us-core-ethnicity","extension":[{"url":"ombCategory","valueCoding":{"system":"urn:oid:2.16.840.1.113883.6.238","code":"2135-2","display":"Hispanic or Latino","userSelected":true}},{"url":"text","valueString":"Hispanic or Latino"}]}],"identifier":[{"type":{"coding":[{"system":"http://terminology.hl7.org/CodeSystem/v2-0203","code":"MR"}]},"system":"https://bonnie-fhir.healthit.gov/","value":"633b3f9e0968f80122503cd8"}],"active":true,"name":[{"use":"usual","family":"DENOMPass","given":["Test3EDDMinutesImpactOnWksGest"]}],"gender":"female","birthDate":"1970-02-01"},"request":{"method":"PUT","url":"Patient/a7510bad-5fee-4356-acf7-a5a1af58a8bb"}},{"fullUrl":"https://madie.cms.gov/Observation/75f7a872-ace2-44f1-b3f3-8904e05e4266","resource":{"resourceType":"Observation","id":"75f7a872-ace2-44f1-b3f3-8904e05e4266","meta":{"profile":["http://hl7.org/fhir/us/qicore/StructureDefinition/qicore-observation"]},"status":"final","category":[{"coding":[{"system":"http://terminology.hl7.org/CodeSystem/observation-category","code":"exam","display":"exam","userSelected":true}]}],"code":{"coding":[{"system":"http://loinc.org","code":"93857-1"}]},"subject":{"reference":"Patient/a7510bad-5fee-4356-acf7-a5a1af58a8bb"},"effectiveDateTime":"2024-02-01T08:00:00.000+00:00","valueDateTime":"2024-02-01T08:00:00+00:00"},"request":{"method":"PUT","url":"Observation/75f7a872-ace2-44f1-b3f3-8904e05e4266"}},{"fullUrl":"https://madie.cms.gov/Observation/5cca4d3e-d14d-48a8-b7cd-dcf23631527d","resource":{"resourceType":"Observation","id":"5cca4d3e-d14d-48a8-b7cd-dcf23631527d","meta":{"profile":["http://hl7.org/fhir/us/qicore/StructureDefinition/qicore-observation"]},"status":"final","category":[{"coding":[{"system":"http://terminology.hl7.org/CodeSystem/observation-category","code":"exam","display":"exam","userSelected":true}]}],"code":{"coding":[{"system":"http://loinc.org","code":"11778-8"}]},"subject":{"reference":"Patient/a7510bad-5fee-4356-acf7-a5a1af58a8bb"},"effectiveDateTime":"2023-04-13T08:01:00.000+00:00","valueDateTime":"2024-02-01T08:01:00.000+00:00"},"request":{"method":"PUT","url":"Observation/5cca4d3e-d14d-48a8-b7cd-dcf23631527d"}},{"fullUrl":"https://madie.cms.gov/Encounter/616bc6e8-2795-44b3-bbcd-0888e7e85f35","resource":{"resourceType":"Encounter","id":"616bc6e8-2795-44b3-bbcd-0888e7e85f35","meta":{"profile":["http://hl7.org/fhir/us/qicore/StructureDefinition/qicore-encounter"]},"status":"finished","class":{"system":"http://terminology.hl7.org/CodeSystem/v3-ActCode","code":"IMP","display":"inpatient encounter"},"type":[{"coding":[{"system":"http://snomed.info/sct","code":"183452005"}]}],"subject":{"reference":"Patient/a7510bad-5fee-4356-acf7-a5a1af58a8bb"},"period":{"start":"2024-01-30T08:00:00.000Z","end":"2024-02-05T08:15:00.000Z"}},"request":{"method":"PUT","url":"Encounter/616bc6e8-2795-44b3-bbcd-0888e7e85f35"}},{"fullUrl":"https://madie.cms.gov/Procedure/d8bc80af-31ee-4698-87ee-dc6c17d09cd1","resource":{"resourceType":"Procedure","id":"d8bc80af-31ee-4698-87ee-dc6c17d09cd1","meta":{"profile":["http://hl7.org/fhir/us/qicore/StructureDefinition/qicore-procedure"]},"extension":[{"url":"http://hl7.org/fhir/us/qicore/StructureDefinition/qicore-recorded","valueDateTime":"2013-04-05T09:35:00-04:00"}],"status":"completed","code":{"coding":[{"system":"http://snomed.info/sct","code":"10745001"}]},"subject":{"reference":"Patient/a7510bad-5fee-4356-acf7-a5a1af58a8bb"},"performedPeriod":{"start":"2024-02-01T08:00:00.000Z"}},"request":{"method":"PUT","url":"Procedure/d8bc80af-31ee-4698-87ee-dc6c17d09cd1"}},{"fullUrl":"https://madie.cms.gov/Coverage/49a0e265-db45-4bde-8812-c8dc92c3df51","resource":{"resourceType":"Coverage","id":"49a0e265-db45-4bde-8812-c8dc92c3df51","meta":{"profile":["http://hl7.org/fhir/us/qicore/StructureDefinition/qicore-coverage"]},"status":"active","beneficiary":{"reference":"Patient/a7510bad-5fee-4356-acf7-a5a1af58a8bb"},"payor":[{"reference":"Organization/d4f04ac6-b3f1-4341-a955-db77485dfff4"}]},"request":{"method":"PUT","url":"Coverage/49a0e265-db45-4bde-8812-c8dc92c3df51"}},{"fullUrl":"https://madie.cms.gov/Organization/d4f04ac6-b3f1-4341-a955-db77485dfff4","resource":{"resourceType":"Organization","id":"d4f04ac6-b3f1-4341-a955-db77485dfff4","meta":{"profile":["http://hl7.org/fhir/us/qicore/StructureDefinition/qicore-organization"]},"identifier":[{"use":"temp","system":"urn:oid:2.16.840.1.113883.4.4","value":"21-3259825"}],"active":true,"type":[{"coding":[{"system":"http://terminology.hl7.org/CodeSystem/organization-type","code":"pay","display":"Payer"}]}],"name":"Blue Cross Blue Shield of Texas","telecom":[{"system":"phone","value":"(+1) 972-766-6900"}],"address":[{"use":"billing","type":"postal","line":["P.O. Box 660044"],"city":"Dallas","state":"TX","postalCode":"75266-0044","country":"USA"}]},"request":{"method":"PUT","url":"Organization/d4f04ac6-b3f1-4341-a955-db77485dfff4"}},{"fullUrl":"https://madie.cms.gov/Practitioner/1c8f87c1-98ba-4437-a0ff-16a658df6c09","resource":{"resourceType":"Practitioner","id":"1c8f87c1-98ba-4437-a0ff-16a658df6c09","identifier":[{"system":"http://hl7.org/fhir/sid/us-npi","value":"123456"}],"name":[{"family":"Evil","prefix":["Dr"]}]},"request":{"method":"PUT","url":"Practitioner/1c8f87c1-98ba-4437-a0ff-16a658df6c09"}},{"fullUrl":"https://madie.cms.gov/MeasureReport/d6ff3637-2347-4445-adfa-fdcd08dffd66","resource":{"resourceType":"MeasureReport","id":"d6ff3637-2347-4445-adfa-fdcd08dffd66","meta":{"profile":["http://hl7.org/fhir/us/cqfmeasures/StructureDefinition/test-case-cqfm"]},"contained":[{"resourceType":"Parameters","id":"df1cbc80-a4cd-438d-8e75-ceffc5f0757f-parameters","parameter":[{"name":"subject","valueString":"a7510bad-5fee-4356-acf7-a5a1af58a8bb"}]}],"extension":[{"url":"http://hl7.org/fhir/us/cqfmeasures/StructureDefinition/cqfm-inputParameters","valueReference":{"reference":"#df1cbc80-a4cd-438d-8e75-ceffc5f0757f-parameters"}},{"url":"http://hl7.org/fhir/us/cqfmeasures/StructureDefinition/cqfm-testCaseDescription","valueMarkdown":"\"Delivery date = 2/1/2012 @0800.  EDD = 2/1/2012\n @0801.  Weeks gestation = 40.\"  To test the impact on calculated weeks gestation, I temporarily changed the logic of this definition:  \"Del Enc with CGA Greater than or Equal to 20 Weeks\" to = 40.\n"}],"modifierExtension":[{"url":"http://hl7.org/fhir/us/cqfmeasures/StructureDefinition/cqfm-isTestCase","valueBoolean":true}],"status":"complete","type":"individual","measure":"https://madie.cms.gov/Measure/SevereObstetricComplicationsFHIR","period":{"start":"2024-01-01","end":"2024-12-31"},"group":[{"population":[{"code":{"coding":[{"system":"http://terminology.hl7.org/CodeSystem/measure-population","code":"initial-population","display":"Initial Population"}]},"count":1},{"code":{"coding":[{"system":"http://terminology.hl7.org/CodeSystem/measure-population","code":"denominator","display":"Denominator"}]},"count":1},{"code":{"coding":[{"system":"http://terminology.hl7.org/CodeSystem/measure-population","code":"denominator-exclusion","display":"Denominator Exclusion"}]},"count":0},{"code":{"coding":[{"system":"http://terminology.hl7.org/CodeSystem/measure-population","code":"numerator","display":"Numerator"}]},"count":0}]}],"evaluatedResource":[{"reference":"Patient/a7510bad-5fee-4356-acf7-a5a1af58a8bb"},{"reference":"Observation/75f7a872-ace2-44f1-b3f3-8904e05e4266"},{"reference":"Observation/5cca4d3e-d14d-48a8-b7cd-dcf23631527d"},{"reference":"Encounter/616bc6e8-2795-44b3-bbcd-0888e7e85f35"},{"reference":"Procedure/d8bc80af-31ee-4698-87ee-dc6c17d09cd1"},{"reference":"Coverage/49a0e265-db45-4bde-8812-c8dc92c3df51"},{"reference":"Organization/d4f04ac6-b3f1-4341-a955-db77485dfff4"},{"reference":"Practitioner/1c8f87c1-98ba-4437-a0ff-16a658df6c09"}]},"request":{"method":"PUT","url":"MeasureReport/d6ff3637-2347-4445-adfa-fdcd08dffd66"}}]}