{"resourceType":"Bundle","id":"tests-e38a9272-dda6-4243-b10a-ce755add6c3e-bundle","type":"transaction","entry":[{"fullUrl":"https://madie.cms.gov/Patient/e38a9272-dda6-4243-b10a-ce755add6c3e","resource":{"resourceType":"Patient","id":"e38a9272-dda6-4243-b10a-ce755add6c3e","meta":{"profile":["http://hl7.org/fhir/us/qicore/StructureDefinition/qicore-patient"]},"text":{"status":"generated","div":"<div xmlns=\"http://www.w3.org/1999/xhtml\"><div class=\"hapiHeaderText\">AssPrfDELRsltDtTime_EQIPEnd <b>DENOMPASS </b></div><table class=\"hapiPropertyTable\"><tbody><tr><td>Date of birth</td><td><span>01 February 2004</span></td></tr></tbody></table></div>"},"extension":[{"url":"http://hl7.org/fhir/us/core/StructureDefinition/us-core-race","extension":[{"url":"ombCategory","valueCoding":{"system":"urn:oid:2.16.840.1.113883.6.238","code":"1002-5","display":"American Indian or Alaska Native","userSelected":true}},{"url":"text","valueString":"American Indian or Alaska Native"}]},{"url":"http://hl7.org/fhir/us/core/StructureDefinition/us-core-ethnicity","extension":[{"url":"ombCategory","valueCoding":{"system":"urn:oid:2.16.840.1.113883.6.238","code":"2135-2","display":"Hispanic or Latino","userSelected":true}},{"url":"text","valueString":"Hispanic or Latino"}]}],"identifier":[{"type":{"coding":[{"system":"http://terminology.hl7.org/CodeSystem/v2-0203","code":"MR"}]},"system":"https://bonnie-fhir.healthit.gov/","value":"633b3f9e0968f80122503cd0"}],"active":true,"name":[{"use":"usual","family":"DENOMPass","given":["AssPrfDELRsltDtTime_EQIPEnd"]}],"gender":"female","birthDate":"2004-02-01"},"request":{"method":"PUT","url":"Patient/e38a9272-dda6-4243-b10a-ce755add6c3e"}},{"fullUrl":"https://madie.cms.gov/Observation/845074e4-52a6-4f98-b7bc-2e4d4b69306a","resource":{"resourceType":"Observation","id":"845074e4-52a6-4f98-b7bc-2e4d4b69306a","meta":{"profile":["http://hl7.org/fhir/us/qicore/StructureDefinition/qicore-observation"]},"status":"final","category":[{"coding":[{"system":"http://terminology.hl7.org/CodeSystem/observation-category","code":"exam","display":"exam","userSelected":true}]}],"code":{"coding":[{"system":"http://loinc.org","code":"93857-1"}]},"subject":{"reference":"Patient/e38a9272-dda6-4243-b10a-ce755add6c3e"},"effectiveDateTime":"2024-02-05T08:15:00.000+00:00","valueDateTime":"2024-02-05T08:15:00+00:00"},"request":{"method":"PUT","url":"Observation/845074e4-52a6-4f98-b7bc-2e4d4b69306a"}},{"fullUrl":"https://madie.cms.gov/Observation/8e3c325a-8e69-4a78-841a-13749375dcc9","resource":{"resourceType":"Observation","id":"8e3c325a-8e69-4a78-841a-13749375dcc9","meta":{"profile":["http://hl7.org/fhir/us/qicore/StructureDefinition/qicore-observation"]},"status":"final","category":[{"coding":[{"system":"http://terminology.hl7.org/CodeSystem/observation-category","code":"exam","display":"exam","userSelected":true}]}],"code":{"coding":[{"system":"http://loinc.org","code":"11778-8"}]},"subject":{"reference":"Patient/e38a9272-dda6-4243-b10a-ce755add6c3e"},"effectiveDateTime":"2024-02-01T08:00:00.000+00:00","valueDateTime":"2024-02-01T08:00:00.000+00:00"},"request":{"method":"PUT","url":"Observation/8e3c325a-8e69-4a78-841a-13749375dcc9"}},{"fullUrl":"https://madie.cms.gov/Encounter/938f7097-e231-4a40-85d2-7ee11767f1e1","resource":{"resourceType":"Encounter","id":"938f7097-e231-4a40-85d2-7ee11767f1e1","meta":{"profile":["http://hl7.org/fhir/us/qicore/StructureDefinition/qicore-encounter"]},"status":"finished","class":{"system":"http://terminology.hl7.org/CodeSystem/v3-ActCode","code":"IMP","display":"inpatient encounter"},"type":[{"coding":[{"system":"http://snomed.info/sct","code":"183452005"}]}],"subject":{"reference":"Patient/e38a9272-dda6-4243-b10a-ce755add6c3e"},"period":{"start":"2024-02-01T08:00:00.000Z","end":"2024-02-05T08:15:00.000Z"}},"request":{"method":"PUT","url":"Encounter/938f7097-e231-4a40-85d2-7ee11767f1e1"}},{"fullUrl":"https://madie.cms.gov/Procedure/1fcfb663-2f24-48b4-acba-c1a6a027b139","resource":{"resourceType":"Procedure","id":"1fcfb663-2f24-48b4-acba-c1a6a027b139","meta":{"profile":["http://hl7.org/fhir/us/qicore/StructureDefinition/qicore-procedure"]},"extension":[{"url":"http://hl7.org/fhir/us/qicore/StructureDefinition/qicore-recorded","valueDateTime":"2013-04-05T09:35:00-04:00"}],"status":"completed","code":{"coding":[{"system":"http://snomed.info/sct","code":"10745001"}]},"subject":{"reference":"Patient/e38a9272-dda6-4243-b10a-ce755add6c3e"},"performedPeriod":{"start":"2024-02-01T08:00:00.000Z","end":"2024-02-05T08:15:00.000Z"}},"request":{"method":"PUT","url":"Procedure/1fcfb663-2f24-48b4-acba-c1a6a027b139"}},{"fullUrl":"https://madie.cms.gov/Coverage/7dae0017-8d3f-4dd5-bd93-dea7980dc6ea","resource":{"resourceType":"Coverage","id":"7dae0017-8d3f-4dd5-bd93-dea7980dc6ea","meta":{"profile":["http://hl7.org/fhir/us/qicore/StructureDefinition/qicore-coverage"]},"status":"active","beneficiary":{"reference":"Patient/e38a9272-dda6-4243-b10a-ce755add6c3e"},"payor":[{"reference":"Organization/39322cb1-1f01-42ed-868e-85daae07e6a1"}]},"request":{"method":"PUT","url":"Coverage/7dae0017-8d3f-4dd5-bd93-dea7980dc6ea"}},{"fullUrl":"https://madie.cms.gov/Organization/39322cb1-1f01-42ed-868e-85daae07e6a1","resource":{"resourceType":"Organization","id":"39322cb1-1f01-42ed-868e-85daae07e6a1","meta":{"profile":["http://hl7.org/fhir/us/qicore/StructureDefinition/qicore-organization"]},"identifier":[{"use":"temp","system":"urn:oid:2.16.840.1.113883.4.4","value":"21-3259825"}],"active":true,"type":[{"coding":[{"system":"http://terminology.hl7.org/CodeSystem/organization-type","code":"pay","display":"Payer"}]}],"name":"Blue Cross Blue Shield of Texas","telecom":[{"system":"phone","value":"(+1) 972-766-6900"}],"address":[{"use":"billing","type":"postal","line":["P.O. Box 660044"],"city":"Dallas","state":"TX","postalCode":"75266-0044","country":"USA"}]},"request":{"method":"PUT","url":"Organization/39322cb1-1f01-42ed-868e-85daae07e6a1"}},{"fullUrl":"https://madie.cms.gov/Practitioner/aa80b240-0886-4ad2-805c-21e6f52da433","resource":{"resourceType":"Practitioner","id":"aa80b240-0886-4ad2-805c-21e6f52da433","identifier":[{"system":"http://hl7.org/fhir/sid/us-npi","value":"123456"}],"name":[{"family":"Evil","prefix":["Dr"]}]},"request":{"method":"PUT","url":"Practitioner/aa80b240-0886-4ad2-805c-21e6f52da433"}},{"fullUrl":"https://madie.cms.gov/MeasureReport/42d4b4e9-ccd0-496c-b99c-edc08f7651cb","resource":{"resourceType":"MeasureReport","id":"42d4b4e9-ccd0-496c-b99c-edc08f7651cb","meta":{"profile":["http://hl7.org/fhir/us/cqfmeasures/StructureDefinition/test-case-cqfm"]},"contained":[{"resourceType":"Parameters","id":"02fd86eb-c4eb-49ee-ba57-5f5ef4ed7cc1-parameters","parameter":[{"name":"subject","valueString":"e38a9272-dda6-4243-b10a-ce755add6c3e"}]}],"extension":[{"url":"http://hl7.org/fhir/us/cqfmeasures/StructureDefinition/cqfm-inputParameters","valueReference":{"reference":"#02fd86eb-c4eb-49ee-ba57-5f5ef4ed7cc1-parameters"}},{"url":"http://hl7.org/fhir/us/cqfmeasures/StructureDefinition/cqfm-testCaseDescription","valueMarkdown":"Result date/Time of delivery (based on assessment performed) is equal to encounter end.\n"}],"modifierExtension":[{"url":"http://hl7.org/fhir/us/cqfmeasures/StructureDefinition/cqfm-isTestCase","valueBoolean":true}],"status":"complete","type":"individual","measure":"https://madie.cms.gov/Measure/SevereObstetricComplicationsFHIR","period":{"start":"2024-01-01","end":"2024-12-31"},"group":[{"population":[{"code":{"coding":[{"system":"http://terminology.hl7.org/CodeSystem/measure-population","code":"initial-population","display":"Initial Population"}]},"count":1},{"code":{"coding":[{"system":"http://terminology.hl7.org/CodeSystem/measure-population","code":"denominator","display":"Denominator"}]},"count":1},{"code":{"coding":[{"system":"http://terminology.hl7.org/CodeSystem/measure-population","code":"denominator-exclusion","display":"Denominator Exclusion"}]},"count":0},{"code":{"coding":[{"system":"http://terminology.hl7.org/CodeSystem/measure-population","code":"numerator","display":"Numerator"}]},"count":0}]}],"evaluatedResource":[{"reference":"Patient/e38a9272-dda6-4243-b10a-ce755add6c3e"},{"reference":"Observation/845074e4-52a6-4f98-b7bc-2e4d4b69306a"},{"reference":"Observation/8e3c325a-8e69-4a78-841a-13749375dcc9"},{"reference":"Encounter/938f7097-e231-4a40-85d2-7ee11767f1e1"},{"reference":"Procedure/1fcfb663-2f24-48b4-acba-c1a6a027b139"},{"reference":"Coverage/7dae0017-8d3f-4dd5-bd93-dea7980dc6ea"},{"reference":"Organization/39322cb1-1f01-42ed-868e-85daae07e6a1"},{"reference":"Practitioner/aa80b240-0886-4ad2-805c-21e6f52da433"}]},"request":{"method":"PUT","url":"MeasureReport/42d4b4e9-ccd0-496c-b99c-edc08f7651cb"}}]}