{"resourceType":"Bundle","id":"tests-3d73f97f-fb6e-4e48-b472-b624148dd242-bundle","type":"transaction","entry":[{"fullUrl":"https://madie.cms.gov/Patient/3d73f97f-fb6e-4e48-b472-b624148dd242","resource":{"resourceType":"Patient","id":"3d73f97f-fb6e-4e48-b472-b624148dd242","meta":{"profile":["http://hl7.org/fhir/us/qicore/StructureDefinition/qicore-patient"]},"text":{"status":"generated","div":"<div xmlns=\"http://www.w3.org/1999/xhtml\"><div class=\"hapiHeaderText\">Risk_ObstetricalVTE<b>RISKPass </b></div><table class=\"hapiPropertyTable\"><tbody><tr><td>Date of birth</td><td><span>01 February 2004</span></td></tr></tbody></table></div>"},"extension":[{"url":"http://hl7.org/fhir/us/core/StructureDefinition/us-core-race","extension":[{"url":"ombCategory","valueCoding":{"system":"urn:oid:2.16.840.1.113883.6.238","code":"1002-5","display":"American Indian or Alaska Native","userSelected":true}},{"url":"text","valueString":"American Indian or Alaska Native"}]},{"url":"http://hl7.org/fhir/us/core/StructureDefinition/us-core-ethnicity","extension":[{"url":"ombCategory","valueCoding":{"system":"urn:oid:2.16.840.1.113883.6.238","code":"2135-2","display":"Hispanic or Latino","userSelected":true}},{"url":"text","valueString":"Hispanic or Latino"}]}],"identifier":[{"type":{"coding":[{"system":"http://terminology.hl7.org/CodeSystem/v2-0203","code":"MR"}]},"system":"https://bonnie-fhir.healthit.gov/","value":"63594c7a6aee9629c82981df"}],"active":true,"name":[{"use":"usual","family":"RiskPass","given":["Risk_ObstetricalVTE"]}],"gender":"female","birthDate":"2004-02-01"},"request":{"method":"PUT","url":"Patient/3d73f97f-fb6e-4e48-b472-b624148dd242"}},{"fullUrl":"https://madie.cms.gov/Observation/80ba8343-619d-482b-9a87-2725317421be","resource":{"resourceType":"Observation","id":"80ba8343-619d-482b-9a87-2725317421be","meta":{"profile":["http://hl7.org/fhir/us/qicore/StructureDefinition/qicore-observation"]},"status":"final","category":[{"coding":[{"system":"http://terminology.hl7.org/CodeSystem/observation-category","code":"exam","display":"exam","userSelected":true}]}],"code":{"coding":[{"system":"http://loinc.org","code":"93857-1"}]},"subject":{"reference":"Patient/3d73f97f-fb6e-4e48-b472-b624148dd242"},"effectiveDateTime":"2024-02-01T08:00:00.000+00:00","valueDateTime":"2024-02-01T08:00:00+00:00"},"request":{"method":"PUT","url":"Observation/80ba8343-619d-482b-9a87-2725317421be"}},{"fullUrl":"https://madie.cms.gov/Observation/7d480e97-3f8c-42f1-8da7-3b558ebf4259","resource":{"resourceType":"Observation","id":"7d480e97-3f8c-42f1-8da7-3b558ebf4259","meta":{"profile":["http://hl7.org/fhir/us/qicore/StructureDefinition/qicore-observation"]},"status":"final","category":[{"coding":[{"system":"http://terminology.hl7.org/CodeSystem/observation-category","code":"exam","display":"exam","userSelected":true}]}],"code":{"coding":[{"system":"http://loinc.org","code":"11778-8"}]},"subject":{"reference":"Patient/3d73f97f-fb6e-4e48-b472-b624148dd242"},"effectiveDateTime":"2024-02-01T08:00:00.000+00:00","valueDateTime":"2024-02-01T00:00:00.000+00:00"},"request":{"method":"PUT","url":"Observation/7d480e97-3f8c-42f1-8da7-3b558ebf4259"}},{"fullUrl":"https://madie.cms.gov/Encounter/a3e174a4-7844-4012-b6bf-f1c7a15d1591","resource":{"resourceType":"Encounter","id":"a3e174a4-7844-4012-b6bf-f1c7a15d1591","meta":{"profile":["http://hl7.org/fhir/us/qicore/StructureDefinition/qicore-encounter"]},"status":"finished","class":{"system":"http://terminology.hl7.org/CodeSystem/v3-ActCode","code":"IMP","display":"inpatient encounter"},"type":[{"coding":[{"system":"http://snomed.info/sct","code":"183452005"}]}],"subject":{"reference":"Patient/3d73f97f-fb6e-4e48-b472-b624148dd242"},"period":{"start":"2024-02-01T08:00:00.000Z","end":"2024-02-05T08:15:00.000Z"},"diagnosis":[{"extension":[{"url":"http://hl7.org/fhir/us/qicore/StructureDefinition/qicore-encounter-diagnosisPresentOnAdmission","valueCodeableConcept":{"coding":[{"system":"https://www.cms.gov/Medicare/Medicare-Fee-for-Service-Payment/HospitalAcqCond/Coding","code":"Y"}]}}],"condition":{"reference":"Condition/55e20ea2-fcd1-449a-b3b1-285219a27d24"}},{"extension":[{"url":"http://hl7.org/fhir/us/qicore/StructureDefinition/qicore-encounter-diagnosisPresentOnAdmission","valueCodeableConcept":{"coding":[{"system":"https://www.cms.gov/Medicare/Medicare-Fee-for-Service-Payment/HospitalAcqCond/Coding","code":"N"}]}}],"condition":{"reference":"Condition/bfccf11b-2e78-48c8-8653-b36a450c721b"}}]},"request":{"method":"PUT","url":"Encounter/a3e174a4-7844-4012-b6bf-f1c7a15d1591"}},{"fullUrl":"https://madie.cms.gov/Procedure/48ea6d6c-2392-4c14-8d0e-60f7780bc3a0","resource":{"resourceType":"Procedure","id":"48ea6d6c-2392-4c14-8d0e-60f7780bc3a0","meta":{"profile":["http://hl7.org/fhir/us/qicore/StructureDefinition/qicore-procedure"]},"extension":[{"url":"http://hl7.org/fhir/us/qicore/StructureDefinition/qicore-recorded","valueDateTime":"2013-04-05T09:35:00-04:00"}],"status":"completed","code":{"coding":[{"system":"http://snomed.info/sct","code":"10745001"}]},"subject":{"reference":"Patient/3d73f97f-fb6e-4e48-b472-b624148dd242"},"performedDateTime":"2024-02-01T08:00:00.000+00:00"},"request":{"method":"PUT","url":"Procedure/48ea6d6c-2392-4c14-8d0e-60f7780bc3a0"}},{"fullUrl":"https://madie.cms.gov/Condition/bfccf11b-2e78-48c8-8653-b36a450c721b","resource":{"resourceType":"Condition","id":"bfccf11b-2e78-48c8-8653-b36a450c721b","meta":{"profile":["http://hl7.org/fhir/us/qicore/StructureDefinition/qicore-condition"]},"category":[{"coding":[{"system":"http://terminology.hl7.org/CodeSystem/condition-category","code":"encounter-diagnosis","display":"Encounter Diagnosis"}]}],"code":{"coding":[{"system":"http://hl7.org/fhir/sid/icd-10-cm","version":"2023","code":"A32.7","display":"Listerial sepsis","userSelected":true}]},"subject":{"reference":"Patient/3d73f97f-fb6e-4e48-b472-b624148dd242"},"recordedDate":"2024-10-26T08:00:00.000+00:00"},"request":{"method":"PUT","url":"Condition/bfccf11b-2e78-48c8-8653-b36a450c721b"}},{"fullUrl":"https://madie.cms.gov/Condition/55e20ea2-fcd1-449a-b3b1-285219a27d24","resource":{"resourceType":"Condition","id":"55e20ea2-fcd1-449a-b3b1-285219a27d24","meta":{"profile":["http://hl7.org/fhir/us/qicore/StructureDefinition/qicore-condition"]},"category":[{"coding":[{"system":"http://terminology.hl7.org/CodeSystem/condition-category","code":"encounter-diagnosis","display":"Encounter Diagnosis"}]}],"code":{"coding":[{"system":"http://hl7.org/fhir/sid/icd-10-cm","version":"2023","code":"O22.30","display":"Obstetrical VTE","userSelected":true}]},"subject":{"reference":"Patient/3d73f97f-fb6e-4e48-b472-b624148dd242"},"recordedDate":"2024-10-26T08:00:00.000+00:00"},"request":{"method":"PUT","url":"Condition/55e20ea2-fcd1-449a-b3b1-285219a27d24"}},{"fullUrl":"https://madie.cms.gov/MeasureReport/f9f8e3c8-66da-4437-ab70-51640365fddf","resource":{"resourceType":"MeasureReport","id":"f9f8e3c8-66da-4437-ab70-51640365fddf","meta":{"profile":["http://hl7.org/fhir/us/cqfmeasures/StructureDefinition/test-case-cqfm"]},"contained":[{"resourceType":"Parameters","id":"f34c7f63-e600-48f0-9a6f-368b1ade3879-parameters","parameter":[{"name":"subject","valueString":"3d73f97f-fb6e-4e48-b472-b624148dd242"}]}],"extension":[{"url":"http://hl7.org/fhir/us/cqfmeasures/StructureDefinition/cqfm-inputParameters","valueReference":{"reference":"#f34c7f63-e600-48f0-9a6f-368b1ade3879-parameters"}},{"url":"http://hl7.org/fhir/us/cqfmeasures/StructureDefinition/cqfm-testCaseDescription","valueMarkdown":"Risk variable of obstetrical VTE\n\n"}],"modifierExtension":[{"url":"http://hl7.org/fhir/us/cqfmeasures/StructureDefinition/cqfm-isTestCase","valueBoolean":true}],"status":"complete","type":"individual","measure":"https://madie.cms.gov/Measure/SevereObstetricComplicationsFHIR","period":{"start":"2024-01-01","end":"2024-12-31"},"group":[{"population":[{"code":{"coding":[{"system":"http://terminology.hl7.org/CodeSystem/measure-population","code":"initial-population","display":"Initial Population"}]},"count":1},{"code":{"coding":[{"system":"http://terminology.hl7.org/CodeSystem/measure-population","code":"denominator","display":"Denominator"}]},"count":1},{"code":{"coding":[{"system":"http://terminology.hl7.org/CodeSystem/measure-population","code":"denominator-exclusion","display":"Denominator Exclusion"}]},"count":0},{"code":{"coding":[{"system":"http://terminology.hl7.org/CodeSystem/measure-population","code":"numerator","display":"Numerator"}]},"count":1}]}],"evaluatedResource":[{"reference":"Patient/3d73f97f-fb6e-4e48-b472-b624148dd242"},{"reference":"Observation/80ba8343-619d-482b-9a87-2725317421be"},{"reference":"Observation/7d480e97-3f8c-42f1-8da7-3b558ebf4259"},{"reference":"Encounter/a3e174a4-7844-4012-b6bf-f1c7a15d1591"},{"reference":"Procedure/48ea6d6c-2392-4c14-8d0e-60f7780bc3a0"},{"reference":"Condition/bfccf11b-2e78-48c8-8653-b36a450c721b"},{"reference":"Condition/55e20ea2-fcd1-449a-b3b1-285219a27d24"}]},"request":{"method":"PUT","url":"MeasureReport/f9f8e3c8-66da-4437-ab70-51640365fddf"}}]}