{"resourceType":"Bundle","id":"tests-df168de3-e1b7-4e36-b2f7-c1e88b88762d-bundle","type":"transaction","entry":[{"fullUrl":"https://madie.cms.gov/Patient/df168de3-e1b7-4e36-b2f7-c1e88b88762d","resource":{"resourceType":"Patient","id":"df168de3-e1b7-4e36-b2f7-c1e88b88762d","meta":{"profile":["http://hl7.org/fhir/us/qicore/StructureDefinition/qicore-patient"]},"text":{"status":"generated","div":"<div xmlns=\"http://www.w3.org/1999/xhtml\"><div class=\"hapiHeaderText\">Risk_GastrointestinalDisease<b>RISKPass </b></div><table class=\"hapiPropertyTable\"><tbody><tr><td>Date of birth</td><td><span>01 February 2004</span></td></tr></tbody></table></div>"},"extension":[{"url":"http://hl7.org/fhir/us/core/StructureDefinition/us-core-race","extension":[{"url":"ombCategory","valueCoding":{"system":"urn:oid:2.16.840.1.113883.6.238","code":"1002-5","display":"American Indian or Alaska Native","userSelected":true}},{"url":"text","valueString":"American Indian or Alaska Native"}]},{"url":"http://hl7.org/fhir/us/core/StructureDefinition/us-core-ethnicity","extension":[{"url":"ombCategory","valueCoding":{"system":"urn:oid:2.16.840.1.113883.6.238","code":"2135-2","display":"Hispanic or Latino","userSelected":true}},{"url":"text","valueString":"Hispanic or Latino"}]}],"identifier":[{"type":{"coding":[{"system":"http://terminology.hl7.org/CodeSystem/v2-0203","code":"MR"}]},"system":"https://bonnie-fhir.healthit.gov/","value":"63594c7a6aee9629c82981df"}],"active":true,"name":[{"use":"usual","family":"RiskPass","given":["Risk_GastrointestinalDisease"]}],"gender":"female","birthDate":"2004-02-01"},"request":{"method":"PUT","url":"Patient/df168de3-e1b7-4e36-b2f7-c1e88b88762d"}},{"fullUrl":"https://madie.cms.gov/Observation/db10163d-3850-4c6e-a8a9-0ede09ac112d","resource":{"resourceType":"Observation","id":"db10163d-3850-4c6e-a8a9-0ede09ac112d","meta":{"profile":["http://hl7.org/fhir/us/qicore/StructureDefinition/qicore-observation"]},"status":"final","category":[{"coding":[{"system":"http://terminology.hl7.org/CodeSystem/observation-category","code":"exam","display":"exam","userSelected":true}]}],"code":{"coding":[{"system":"http://loinc.org","code":"93857-1"}]},"subject":{"reference":"Patient/df168de3-e1b7-4e36-b2f7-c1e88b88762d"},"effectiveDateTime":"2024-02-01T08:00:00.000+00:00","valueDateTime":"2024-02-01T08:00:00+00:00"},"request":{"method":"PUT","url":"Observation/db10163d-3850-4c6e-a8a9-0ede09ac112d"}},{"fullUrl":"https://madie.cms.gov/Observation/741cd3e6-21d3-4083-b050-55d967fac6ed","resource":{"resourceType":"Observation","id":"741cd3e6-21d3-4083-b050-55d967fac6ed","meta":{"profile":["http://hl7.org/fhir/us/qicore/StructureDefinition/qicore-observation"]},"status":"final","category":[{"coding":[{"system":"http://terminology.hl7.org/CodeSystem/observation-category","code":"exam","display":"exam","userSelected":true}]}],"code":{"coding":[{"system":"http://loinc.org","code":"11778-8"}]},"subject":{"reference":"Patient/df168de3-e1b7-4e36-b2f7-c1e88b88762d"},"effectiveDateTime":"2024-02-01T08:00:00.000+00:00","valueDateTime":"2024-02-01T00:00:00.000+00:00"},"request":{"method":"PUT","url":"Observation/741cd3e6-21d3-4083-b050-55d967fac6ed"}},{"fullUrl":"https://madie.cms.gov/Encounter/e2bfb853-b258-4fa1-b928-ddcc79fcf98a","resource":{"resourceType":"Encounter","id":"e2bfb853-b258-4fa1-b928-ddcc79fcf98a","meta":{"profile":["http://hl7.org/fhir/us/qicore/StructureDefinition/qicore-encounter"]},"status":"finished","class":{"system":"http://terminology.hl7.org/CodeSystem/v3-ActCode","code":"IMP","display":"inpatient encounter"},"type":[{"coding":[{"system":"http://snomed.info/sct","code":"183452005"}]}],"subject":{"reference":"Patient/df168de3-e1b7-4e36-b2f7-c1e88b88762d"},"period":{"start":"2024-02-01T08:00:00.000Z","end":"2024-02-05T08:15:00.000Z"},"diagnosis":[{"extension":[{"url":"http://hl7.org/fhir/us/qicore/StructureDefinition/qicore-encounter-diagnosisPresentOnAdmission","valueCodeableConcept":{"coding":[{"system":"https://www.cms.gov/Medicare/Medicare-Fee-for-Service-Payment/HospitalAcqCond/Coding","code":"Y"}]}}],"condition":{"reference":"Condition/d50a9ec3-e612-4d61-9ffd-499f6788f557"}},{"extension":[{"url":"http://hl7.org/fhir/us/qicore/StructureDefinition/qicore-encounter-diagnosisPresentOnAdmission","valueCodeableConcept":{"coding":[{"system":"https://www.cms.gov/Medicare/Medicare-Fee-for-Service-Payment/HospitalAcqCond/Coding","code":"N"}]}}],"condition":{"reference":"Condition/bd0318cb-9804-43f2-8e75-9890a34351f9"}}]},"request":{"method":"PUT","url":"Encounter/e2bfb853-b258-4fa1-b928-ddcc79fcf98a"}},{"fullUrl":"https://madie.cms.gov/Procedure/21367d17-58b6-4577-814e-4b3635673214","resource":{"resourceType":"Procedure","id":"21367d17-58b6-4577-814e-4b3635673214","meta":{"profile":["http://hl7.org/fhir/us/qicore/StructureDefinition/qicore-procedure"]},"extension":[{"url":"http://hl7.org/fhir/us/qicore/StructureDefinition/qicore-recorded","valueDateTime":"2013-04-05T09:35:00-04:00"}],"status":"completed","code":{"coding":[{"system":"http://snomed.info/sct","code":"10745001"}]},"subject":{"reference":"Patient/df168de3-e1b7-4e36-b2f7-c1e88b88762d"},"performedDateTime":"2024-02-01T08:00:00.000+00:00"},"request":{"method":"PUT","url":"Procedure/21367d17-58b6-4577-814e-4b3635673214"}},{"fullUrl":"https://madie.cms.gov/Condition/bd0318cb-9804-43f2-8e75-9890a34351f9","resource":{"resourceType":"Condition","id":"bd0318cb-9804-43f2-8e75-9890a34351f9","meta":{"profile":["http://hl7.org/fhir/us/qicore/StructureDefinition/qicore-condition"]},"category":[{"coding":[{"system":"http://terminology.hl7.org/CodeSystem/condition-category","code":"encounter-diagnosis","display":"Encounter Diagnosis"}]}],"code":{"coding":[{"system":"http://hl7.org/fhir/sid/icd-10-cm","version":"2023","code":"A32.7","display":"Listerial sepsis","userSelected":true}]},"subject":{"reference":"Patient/df168de3-e1b7-4e36-b2f7-c1e88b88762d"},"recordedDate":"2024-10-26T08:00:00.000+00:00"},"request":{"method":"PUT","url":"Condition/bd0318cb-9804-43f2-8e75-9890a34351f9"}},{"fullUrl":"https://madie.cms.gov/Condition/d50a9ec3-e612-4d61-9ffd-499f6788f557","resource":{"resourceType":"Condition","id":"d50a9ec3-e612-4d61-9ffd-499f6788f557","meta":{"profile":["http://hl7.org/fhir/us/qicore/StructureDefinition/qicore-condition"]},"category":[{"coding":[{"system":"http://terminology.hl7.org/CodeSystem/condition-category","code":"encounter-diagnosis","display":"Encounter Diagnosis"}]}],"code":{"coding":[{"system":"http://hl7.org/fhir/sid/icd-10-cm","version":"2023","code":"K50.00","display":"GI Disease","userSelected":true}]},"subject":{"reference":"Patient/df168de3-e1b7-4e36-b2f7-c1e88b88762d"},"recordedDate":"2024-10-26T08:00:00.000+00:00"},"request":{"method":"PUT","url":"Condition/d50a9ec3-e612-4d61-9ffd-499f6788f557"}},{"fullUrl":"https://madie.cms.gov/MeasureReport/6d4a617c-1a53-403f-a7fc-2f64a380579a","resource":{"resourceType":"MeasureReport","id":"6d4a617c-1a53-403f-a7fc-2f64a380579a","meta":{"profile":["http://hl7.org/fhir/us/cqfmeasures/StructureDefinition/test-case-cqfm"]},"contained":[{"resourceType":"Parameters","id":"1414dfcb-e495-4c48-bfb5-625788059016-parameters","parameter":[{"name":"subject","valueString":"df168de3-e1b7-4e36-b2f7-c1e88b88762d"}]}],"extension":[{"url":"http://hl7.org/fhir/us/cqfmeasures/StructureDefinition/cqfm-inputParameters","valueReference":{"reference":"#1414dfcb-e495-4c48-bfb5-625788059016-parameters"}},{"url":"http://hl7.org/fhir/us/cqfmeasures/StructureDefinition/cqfm-testCaseDescription","valueMarkdown":"Risk variable of gastrointestinal disease.\n\n"}],"modifierExtension":[{"url":"http://hl7.org/fhir/us/cqfmeasures/StructureDefinition/cqfm-isTestCase","valueBoolean":true}],"status":"complete","type":"individual","measure":"https://madie.cms.gov/Measure/SevereObstetricComplicationsFHIR","period":{"start":"2024-01-01","end":"2024-12-31"},"group":[{"population":[{"code":{"coding":[{"system":"http://terminology.hl7.org/CodeSystem/measure-population","code":"initial-population","display":"Initial Population"}]},"count":1},{"code":{"coding":[{"system":"http://terminology.hl7.org/CodeSystem/measure-population","code":"denominator","display":"Denominator"}]},"count":1},{"code":{"coding":[{"system":"http://terminology.hl7.org/CodeSystem/measure-population","code":"denominator-exclusion","display":"Denominator Exclusion"}]},"count":0},{"code":{"coding":[{"system":"http://terminology.hl7.org/CodeSystem/measure-population","code":"numerator","display":"Numerator"}]},"count":1}]}],"evaluatedResource":[{"reference":"Patient/df168de3-e1b7-4e36-b2f7-c1e88b88762d"},{"reference":"Observation/db10163d-3850-4c6e-a8a9-0ede09ac112d"},{"reference":"Observation/741cd3e6-21d3-4083-b050-55d967fac6ed"},{"reference":"Encounter/e2bfb853-b258-4fa1-b928-ddcc79fcf98a"},{"reference":"Procedure/21367d17-58b6-4577-814e-4b3635673214"},{"reference":"Condition/bd0318cb-9804-43f2-8e75-9890a34351f9"},{"reference":"Condition/d50a9ec3-e612-4d61-9ffd-499f6788f557"}]},"request":{"method":"PUT","url":"MeasureReport/6d4a617c-1a53-403f-a7fc-2f64a380579a"}}]}