{"resourceType":"Bundle","id":"tests-5eafa3a6-7f36-452d-9c6b-826661c9f0ff-bundle","type":"transaction","entry":[{"fullUrl":"https://madie.cms.gov/Patient/5eafa3a6-7f36-452d-9c6b-826661c9f0ff","resource":{"resourceType":"Patient","id":"5eafa3a6-7f36-452d-9c6b-826661c9f0ff","meta":{"profile":["http://hl7.org/fhir/us/qicore/StructureDefinition/qicore-patient"]},"text":{"status":"generated","div":"<div xmlns=\"http://www.w3.org/1999/xhtml\"><div class=\"hapiHeaderText\">RISKHctRsltDtTimeEQDelStartless1Min <b>RISKPass </b></div><table class=\"hapiPropertyTable\"><tbody><tr><td>Date of birth</td><td><span>01 February 2004</span></td></tr></tbody></table></div>"},"extension":[{"url":"http://hl7.org/fhir/us/core/StructureDefinition/us-core-race","extension":[{"url":"ombCategory","valueCoding":{"system":"urn:oid:2.16.840.1.113883.6.238","code":"1002-5","display":"American Indian or Alaska Native","userSelected":true}},{"url":"text","valueString":"American Indian or Alaska Native"}]},{"url":"http://hl7.org/fhir/us/core/StructureDefinition/us-core-ethnicity","extension":[{"url":"ombCategory","valueCoding":{"system":"urn:oid:2.16.840.1.113883.6.238","code":"2135-2","display":"Hispanic or Latino","userSelected":true}},{"url":"text","valueString":"Hispanic or Latino"}]}],"identifier":[{"type":{"coding":[{"system":"http://terminology.hl7.org/CodeSystem/v2-0203","code":"MR"}]},"system":"https://bonnie-fhir.healthit.gov/","value":"6359776b6aee9629c8298235"}],"active":true,"name":[{"use":"usual","family":"RiskPass","given":["RISKHctRsltDtTimeEQDelStartless1Min"]}],"gender":"female","birthDate":"2004-02-01"},"request":{"method":"PUT","url":"Patient/5eafa3a6-7f36-452d-9c6b-826661c9f0ff"}},{"fullUrl":"https://madie.cms.gov/Observation/18490508-33b1-4fd8-aded-8f99d221cbff","resource":{"resourceType":"Observation","id":"18490508-33b1-4fd8-aded-8f99d221cbff","meta":{"profile":["http://hl7.org/fhir/us/qicore/StructureDefinition/qicore-observation"]},"status":"final","category":[{"coding":[{"system":"http://terminology.hl7.org/CodeSystem/observation-category","code":"exam","display":"exam","userSelected":true}]}],"code":{"coding":[{"system":"http://loinc.org","code":"93857-1"}]},"subject":{"reference":"Patient/5eafa3a6-7f36-452d-9c6b-826661c9f0ff"},"effectiveDateTime":"2024-02-01T08:00:00.000+00:00","valueDateTime":"2024-02-01T08:00:00+00:00"},"request":{"method":"PUT","url":"Observation/18490508-33b1-4fd8-aded-8f99d221cbff"}},{"fullUrl":"https://madie.cms.gov/Observation/71739e43-9397-4f9e-a85d-61e6a125cdf1","resource":{"resourceType":"Observation","id":"71739e43-9397-4f9e-a85d-61e6a125cdf1","meta":{"profile":["http://hl7.org/fhir/us/qicore/StructureDefinition/qicore-observation"]},"status":"final","category":[{"coding":[{"system":"http://terminology.hl7.org/CodeSystem/observation-category","code":"exam","display":"exam","userSelected":true}]}],"code":{"coding":[{"system":"http://loinc.org","code":"11884-4"}]},"subject":{"reference":"Patient/5eafa3a6-7f36-452d-9c6b-826661c9f0ff"},"effectiveDateTime":"2024-02-01T08:00:00.000+00:00","valueQuantity":{"value":21,"system":"http://unitsofmeasure.org","code":"wk"}},"request":{"method":"PUT","url":"Observation/71739e43-9397-4f9e-a85d-61e6a125cdf1"}},{"fullUrl":"https://madie.cms.gov/Encounter/c678885f-0d53-4162-93f7-29452808762c","resource":{"resourceType":"Encounter","id":"c678885f-0d53-4162-93f7-29452808762c","meta":{"profile":["http://hl7.org/fhir/us/qicore/StructureDefinition/qicore-encounter"]},"status":"finished","class":{"system":"http://terminology.hl7.org/CodeSystem/v3-ActCode","code":"IMP","display":"inpatient encounter"},"type":[{"coding":[{"system":"http://snomed.info/sct","code":"183452005"}]}],"subject":{"reference":"Patient/5eafa3a6-7f36-452d-9c6b-826661c9f0ff"},"period":{"start":"2024-02-01T08:00:00.000Z","end":"2024-02-05T08:15:00.000Z"}},"request":{"method":"PUT","url":"Encounter/c678885f-0d53-4162-93f7-29452808762c"}},{"fullUrl":"https://madie.cms.gov/Encounter/82a2991e-e031-497d-a937-fc5175194da6","resource":{"resourceType":"Encounter","id":"82a2991e-e031-497d-a937-fc5175194da6","meta":{"profile":["http://hl7.org/fhir/us/qicore/StructureDefinition/qicore-encounter"]},"status":"finished","class":{"system":"http://terminology.hl7.org/CodeSystem/v3-ActCode","code":"EMER","display":"emergency"},"type":[{"coding":[{"system":"http://snomed.info/sct","code":"4525004"}]}],"subject":{"reference":"Patient/5eafa3a6-7f36-452d-9c6b-826661c9f0ff"},"period":{"start":"2024-02-01T07:00:00.000Z","end":"2024-02-01T07:59:00.000Z"}},"request":{"method":"PUT","url":"Encounter/82a2991e-e031-497d-a937-fc5175194da6"}},{"fullUrl":"https://madie.cms.gov/Procedure/fb30a4e6-b776-4ca9-b3e8-89879d681b6d","resource":{"resourceType":"Procedure","id":"fb30a4e6-b776-4ca9-b3e8-89879d681b6d","meta":{"profile":["http://hl7.org/fhir/us/qicore/StructureDefinition/qicore-procedure"]},"extension":[{"url":"http://hl7.org/fhir/us/qicore/StructureDefinition/qicore-recorded","valueDateTime":"2024-02-04T09:35:00-04:00"}],"status":"completed","code":{"coding":[{"system":"http://snomed.info/sct","code":"10745001"}]},"subject":{"reference":"Patient/5eafa3a6-7f36-452d-9c6b-826661c9f0ff"},"performedPeriod":{"start":"2024-02-01T08:00:00.000Z","end":"2024-02-05T08:15:00.000Z"}},"request":{"method":"PUT","url":"Procedure/fb30a4e6-b776-4ca9-b3e8-89879d681b6d"}},{"fullUrl":"https://madie.cms.gov/Observation/4c852452-e646-4c34-836e-f59f3d1500b4","resource":{"resourceType":"Observation","id":"4c852452-e646-4c34-836e-f59f3d1500b4","meta":{"profile":["http://hl7.org/fhir/us/core/StructureDefinition/us-core-observation-lab"]},"status":"final","category":[{"coding":[{"system":"http://terminology.hl7.org/CodeSystem/observation-category","code":"laboratory","display":"laboratory","userSelected":true}]}],"code":{"coding":[{"system":"http://loinc.org","version":"2.73","code":"20570-8","display":"Hematocrit [Volume Fraction] in Blood","userSelected":true}]},"subject":{"reference":"Patient/5eafa3a6-7f36-452d-9c6b-826661c9f0ff"},"effectiveDateTime":"2024-02-01T07:59:00.000+00:00","issued":"2024-02-01T07:59:00.000+00:00","valueQuantity":{"value":20,"unit":"%"}},"request":{"method":"PUT","url":"Observation/4c852452-e646-4c34-836e-f59f3d1500b4"}},{"fullUrl":"https://madie.cms.gov/MeasureReport/cc6b2be8-70d6-4121-bf3a-a5924cc45bff","resource":{"resourceType":"MeasureReport","id":"cc6b2be8-70d6-4121-bf3a-a5924cc45bff","meta":{"profile":["http://hl7.org/fhir/us/cqfmeasures/StructureDefinition/test-case-cqfm"]},"contained":[{"resourceType":"Parameters","id":"20c68f58-df76-4bc7-bdab-3b64d352e872-parameters","parameter":[{"name":"subject","valueString":"5eafa3a6-7f36-452d-9c6b-826661c9f0ff"}]}],"extension":[{"url":"http://hl7.org/fhir/us/cqfmeasures/StructureDefinition/cqfm-inputParameters","valueReference":{"reference":"#20c68f58-df76-4bc7-bdab-3b64d352e872-parameters"}},{"url":"http://hl7.org/fhir/us/cqfmeasures/StructureDefinition/cqfm-testCaseDescription","valueMarkdown":"Patient with hematocrit result date/time = delivery date/time minus 1 minute\n"}],"modifierExtension":[{"url":"http://hl7.org/fhir/us/cqfmeasures/StructureDefinition/cqfm-isTestCase","valueBoolean":true}],"status":"complete","type":"individual","measure":"https://madie.cms.gov/Measure/SevereObstetricComplicationsFHIR","period":{"start":"2024-01-01","end":"2024-12-31"},"group":[{"population":[{"code":{"coding":[{"system":"http://terminology.hl7.org/CodeSystem/measure-population","code":"initial-population","display":"Initial Population"}]},"count":1},{"code":{"coding":[{"system":"http://terminology.hl7.org/CodeSystem/measure-population","code":"denominator","display":"Denominator"}]},"count":1},{"code":{"coding":[{"system":"http://terminology.hl7.org/CodeSystem/measure-population","code":"denominator-exclusion","display":"Denominator Exclusion"}]},"count":0},{"code":{"coding":[{"system":"http://terminology.hl7.org/CodeSystem/measure-population","code":"numerator","display":"Numerator"}]},"count":0}]}],"evaluatedResource":[{"reference":"Patient/5eafa3a6-7f36-452d-9c6b-826661c9f0ff"},{"reference":"Observation/18490508-33b1-4fd8-aded-8f99d221cbff"},{"reference":"Observation/71739e43-9397-4f9e-a85d-61e6a125cdf1"},{"reference":"Encounter/c678885f-0d53-4162-93f7-29452808762c"},{"reference":"Encounter/82a2991e-e031-497d-a937-fc5175194da6"},{"reference":"Procedure/fb30a4e6-b776-4ca9-b3e8-89879d681b6d"},{"reference":"Observation/4c852452-e646-4c34-836e-f59f3d1500b4"}]},"request":{"method":"PUT","url":"MeasureReport/cc6b2be8-70d6-4121-bf3a-a5924cc45bff"}}]}