{"resourceType":"Bundle","id":"tests-c509f954-6170-4150-b3fe-11e7239c42e4-bundle","type":"transaction","entry":[{"fullUrl":"https://madie.cms.gov/Patient/c509f954-6170-4150-b3fe-11e7239c42e4","resource":{"resourceType":"Patient","id":"c509f954-6170-4150-b3fe-11e7239c42e4","meta":{"profile":["http://hl7.org/fhir/us/qicore/StructureDefinition/qicore-patient"]},"extension":[{"url":"http://hl7.org/fhir/us/core/StructureDefinition/us-core-race","extension":[{"url":"ombCategory","valueCoding":{"system":"urn:oid:2.16.840.1.113883.6.238","code":"1002-5","display":"American Indian or Alaska Native","userSelected":true}},{"url":"text","valueString":"American Indian or Alaska Native"}]},{"url":"http://hl7.org/fhir/us/core/StructureDefinition/us-core-ethnicity","extension":[{"url":"ombCategory","valueCoding":{"system":"urn:oid:2.16.840.1.113883.6.238","code":"2135-2","display":"Hispanic or Latino","userSelected":true}},{"url":"text","valueString":"Hispanic or Latino"}]}],"identifier":[{"type":{"coding":[{"system":"http://terminology.hl7.org/CodeSystem/v2-0203","code":"MR"}]},"system":"https://bonnie-fhir.healthit.gov/","value":"63530623224f3b053967124d"}],"name":[{"family":"DENOMPass","given":["EDD24HrsB4TimeOfDel "]}],"gender":"female","birthDate":"2004-02-01"},"request":{"method":"PUT","url":"Patient/c509f954-6170-4150-b3fe-11e7239c42e4"}},{"fullUrl":"https://madie.cms.gov/Encounter/bd32f50b-545f-4231-a966-93198b23fb7b","resource":{"resourceType":"Encounter","id":"bd32f50b-545f-4231-a966-93198b23fb7b","meta":{"profile":["http://hl7.org/fhir/us/qicore/StructureDefinition/qicore-encounter"]},"status":"finished","class":{"system":"http://terminology.hl7.org/CodeSystem/v3-ActCode","code":"IMP","display":"inpatient encounter"},"type":[{"coding":[{"system":"http://snomed.info/sct","version":"2022-09","code":"183452005","display":"Emergency hospital admission (procedure)","userSelected":true}]}],"subject":{"reference":"Patient/c509f954-6170-4150-b3fe-11e7239c42e4"},"period":{"start":"2024-02-01T08:00:00.000+00:00","end":"2024-02-05T08:15:00.000+00:00"},"diagnosis":[{"condition":{"reference":"Condition/delivery-of-singleton-f83c"},"use":{"coding":[{"system":"http://snomed.info/sct","code":"169826009","display":"Delivery of Singleton"}]}}]},"request":{"method":"PUT","url":"Encounter/bd32f50b-545f-4231-a966-93198b23fb7b"}},{"fullUrl":"https://madie.cms.gov/Procedure/5231f936-456c-4510-96ca-2be0ab753885","resource":{"resourceType":"Procedure","id":"5231f936-456c-4510-96ca-2be0ab753885","meta":{"profile":["http://hl7.org/fhir/us/qicore/StructureDefinition/qicore-procedure"]},"extension":[{"url":"http://hl7.org/fhir/us/qicore/StructureDefinition/qicore-recorded","valueDateTime":"2013-04-05T09:35:00-04:00"}],"status":"completed","code":{"coding":[{"system":"http://www.cms.gov/Medicare/Coding/ICD10","code":"10D07Z3"},{"system":"http://www.icd10data.com/icd10pcs","code":"10D07Z3","userSelected":true}]},"subject":{"reference":"Patient/c509f954-6170-4150-b3fe-11e7239c42e4"},"performedPeriod":{"start":"2024-02-01T08:00:00.000+00:00","end":"2024-02-05T08:15:00.000+00:00"}},"request":{"method":"PUT","url":"Procedure/5231f936-456c-4510-96ca-2be0ab753885"}},{"fullUrl":"https://madie.cms.gov/Observation/d81e0a03-2a81-4726-aacb-2cd93dbae5ee","resource":{"resourceType":"Observation","id":"d81e0a03-2a81-4726-aacb-2cd93dbae5ee","meta":{"profile":["http://hl7.org/fhir/us/qicore/StructureDefinition/qicore-observation"]},"status":"final","category":[{"coding":[{"system":"http://terminology.hl7.org/CodeSystem/observation-category","code":"exam","display":"exam","userSelected":true}]}],"code":{"coding":[{"system":"http://loinc.org","code":"93857-1","display":"Date and time of obstetric delivery","userSelected":true}]},"subject":{"reference":"Patient/c509f954-6170-4150-b3fe-11e7239c42e4"},"effectiveDateTime":"2024-02-01T08:00:00.000+00:00","valueDateTime":"2024-02-01T08:00:00.000+00:00"},"request":{"method":"PUT","url":"Observation/d81e0a03-2a81-4726-aacb-2cd93dbae5ee"}},{"fullUrl":"https://madie.cms.gov/Observation/88fcbf45-ee67-49d3-ab4d-093c838f664d","resource":{"resourceType":"Observation","id":"88fcbf45-ee67-49d3-ab4d-093c838f664d","meta":{"profile":["http://hl7.org/fhir/us/qicore/StructureDefinition/qicore-observation"]},"status":"final","category":[{"coding":[{"system":"http://terminology.hl7.org/CodeSystem/observation-category","code":"exam","display":"exam","userSelected":true}]}],"code":{"coding":[{"system":"http://loinc.org","code":"11778-8","display":"Delivery date Estimated","userSelected":true}]},"subject":{"reference":"Patient/c509f954-6170-4150-b3fe-11e7239c42e4"},"effectiveDateTime":"2024-01-31T08:00:00.000+00:00","valueDateTime":"2024-01-31T08:00:00.000+00:00"},"request":{"method":"PUT","url":"Observation/88fcbf45-ee67-49d3-ab4d-093c838f664d"}},{"fullUrl":"https://madie.cms.gov/Coverage/732a89b5-23f8-4d04-82f2-f6e6bbc65f19","resource":{"resourceType":"Coverage","id":"732a89b5-23f8-4d04-82f2-f6e6bbc65f19","meta":{"profile":["http://hl7.org/fhir/us/qicore/StructureDefinition/qicore-coverage"]},"status":"active","beneficiary":{"reference":"Patient/c509f954-6170-4150-b3fe-11e7239c42e4"},"payor":[{"reference":"Organization/f6869a05-6894-4cbf-8cb0-1e7f8adac675"}]},"request":{"method":"PUT","url":"Coverage/732a89b5-23f8-4d04-82f2-f6e6bbc65f19"}},{"fullUrl":"https://madie.cms.gov/Organization/f6869a05-6894-4cbf-8cb0-1e7f8adac675","resource":{"resourceType":"Organization","id":"f6869a05-6894-4cbf-8cb0-1e7f8adac675","meta":{"profile":["http://hl7.org/fhir/us/qicore/StructureDefinition/qicore-organization"]},"identifier":[{"use":"temp","system":"urn:oid:2.16.840.1.113883.4.4","value":"21-3259825"}],"active":true,"type":[{"coding":[{"system":"http://terminology.hl7.org/CodeSystem/organization-type","code":"pay","display":"Payer"}]}],"name":"Blue Cross Blue Shield of Texas","telecom":[{"system":"phone","value":"(+1) 972-766-6900"}],"address":[{"use":"billing","type":"postal","line":["P.O. Box 660044"],"city":"Dallas","state":"TX","postalCode":"75266-0044","country":"USA"}]},"request":{"method":"PUT","url":"Organization/f6869a05-6894-4cbf-8cb0-1e7f8adac675"}},{"fullUrl":"https://madie.cms.gov/Practitioner/c4a5a243-c666-49a8-95f2-a3be860bd755","resource":{"resourceType":"Practitioner","id":"c4a5a243-c666-49a8-95f2-a3be860bd755","identifier":[{"system":"http://hl7.org/fhir/sid/us-npi","value":"123456"}],"name":[{"family":"Evil","prefix":["Dr"]}]},"request":{"method":"PUT","url":"Practitioner/c4a5a243-c666-49a8-95f2-a3be860bd755"}},{"fullUrl":"https://madie.cms.gov/MeasureReport/07ef3cdf-062b-4003-b103-e41e0db8b489","resource":{"resourceType":"MeasureReport","id":"07ef3cdf-062b-4003-b103-e41e0db8b489","meta":{"profile":["http://hl7.org/fhir/us/cqfmeasures/StructureDefinition/test-case-cqfm"]},"contained":[{"resourceType":"Parameters","id":"3d25ae09-4c6e-425d-b6c7-70677f80cade-parameters","parameter":[{"name":"subject","valueString":"c509f954-6170-4150-b3fe-11e7239c42e4"}]}],"extension":[{"url":"http://hl7.org/fhir/us/cqfmeasures/StructureDefinition/cqfm-inputParameters","valueReference":{"reference":"#3d25ae09-4c6e-425d-b6c7-70677f80cade-parameters"}},{"url":"http://hl7.org/fhir/us/cqfmeasures/StructureDefinition/cqfm-testCaseDescription","valueMarkdown":"Last assessment Performed, Estimated Delivery Date, Relevant time, 24 hours before Delivery Result Date/Time.  EDD has date/time\n"}],"modifierExtension":[{"url":"http://hl7.org/fhir/us/cqfmeasures/StructureDefinition/cqfm-isTestCase","valueBoolean":true}],"status":"complete","type":"individual","measure":"https://madie.cms.gov/Measure/SevereObstetricComplicationsFHIR","period":{"start":"2024-01-01","end":"2024-12-31"},"group":[{"population":[{"code":{"coding":[{"system":"http://terminology.hl7.org/CodeSystem/measure-population","code":"initial-population","display":"Initial Population"}]},"count":1},{"code":{"coding":[{"system":"http://terminology.hl7.org/CodeSystem/measure-population","code":"denominator","display":"Denominator"}]},"count":1},{"code":{"coding":[{"system":"http://terminology.hl7.org/CodeSystem/measure-population","code":"denominator-exclusion","display":"Denominator Exclusion"}]},"count":0},{"code":{"coding":[{"system":"http://terminology.hl7.org/CodeSystem/measure-population","code":"numerator","display":"Numerator"}]},"count":0}]}],"evaluatedResource":[{"reference":"Patient/c509f954-6170-4150-b3fe-11e7239c42e4"},{"reference":"Encounter/bd32f50b-545f-4231-a966-93198b23fb7b"},{"reference":"Procedure/5231f936-456c-4510-96ca-2be0ab753885"},{"reference":"Observation/d81e0a03-2a81-4726-aacb-2cd93dbae5ee"},{"reference":"Observation/88fcbf45-ee67-49d3-ab4d-093c838f664d"},{"reference":"Coverage/732a89b5-23f8-4d04-82f2-f6e6bbc65f19"},{"reference":"Organization/f6869a05-6894-4cbf-8cb0-1e7f8adac675"},{"reference":"Practitioner/c4a5a243-c666-49a8-95f2-a3be860bd755"}]},"request":{"method":"PUT","url":"MeasureReport/07ef3cdf-062b-4003-b103-e41e0db8b489"}}]}