{"resourceType":"Bundle","id":"tests-4fc56a9c-8f39-4760-bcbf-1fd75b376b5a-bundle","type":"transaction","entry":[{"fullUrl":"https://madie.cms.gov/Patient/4fc56a9c-8f39-4760-bcbf-1fd75b376b5a","resource":{"resourceType":"Patient","id":"4fc56a9c-8f39-4760-bcbf-1fd75b376b5a","meta":{"profile":["http://hl7.org/fhir/us/qicore/StructureDefinition/qicore-patient"]},"text":{"status":"generated","div":"<div xmlns=\"http://www.w3.org/1999/xhtml\"><div class=\"hapiHeaderText\">Risk_Hypertension<b>RISKPass </b></div><table class=\"hapiPropertyTable\"><tbody><tr><td>Date of birth</td><td><span>01 February 2004</span></td></tr></tbody></table></div>"},"extension":[{"url":"http://hl7.org/fhir/us/core/StructureDefinition/us-core-race","extension":[{"url":"ombCategory","valueCoding":{"system":"urn:oid:2.16.840.1.113883.6.238","code":"1002-5","display":"American Indian or Alaska Native","userSelected":true}},{"url":"text","valueString":"American Indian or Alaska Native"}]},{"url":"http://hl7.org/fhir/us/core/StructureDefinition/us-core-ethnicity","extension":[{"url":"ombCategory","valueCoding":{"system":"urn:oid:2.16.840.1.113883.6.238","code":"2135-2","display":"Hispanic or Latino","userSelected":true}},{"url":"text","valueString":"Hispanic or Latino"}]}],"identifier":[{"type":{"coding":[{"system":"http://terminology.hl7.org/CodeSystem/v2-0203","code":"MR"}]},"system":"https://bonnie-fhir.healthit.gov/","value":"63594c7a6aee9629c82981df"}],"active":true,"name":[{"use":"usual","family":"RiskPass","given":["Risk_Hypertension"]}],"gender":"female","birthDate":"2004-02-01"},"request":{"method":"PUT","url":"Patient/4fc56a9c-8f39-4760-bcbf-1fd75b376b5a"}},{"fullUrl":"https://madie.cms.gov/Observation/dce74348-1a7d-4b5a-bd04-24caf80e69a2","resource":{"resourceType":"Observation","id":"dce74348-1a7d-4b5a-bd04-24caf80e69a2","meta":{"profile":["http://hl7.org/fhir/us/qicore/StructureDefinition/qicore-observation"]},"status":"final","category":[{"coding":[{"system":"http://terminology.hl7.org/CodeSystem/observation-category","code":"exam","display":"exam","userSelected":true}]}],"code":{"coding":[{"system":"http://loinc.org","code":"93857-1"}]},"subject":{"reference":"Patient/4fc56a9c-8f39-4760-bcbf-1fd75b376b5a"},"effectiveDateTime":"2024-02-01T08:00:00.000+00:00","valueDateTime":"2024-02-01T08:00:00+00:00"},"request":{"method":"PUT","url":"Observation/dce74348-1a7d-4b5a-bd04-24caf80e69a2"}},{"fullUrl":"https://madie.cms.gov/Observation/11cd4372-9be1-4946-8a50-2a2aebe55827","resource":{"resourceType":"Observation","id":"11cd4372-9be1-4946-8a50-2a2aebe55827","meta":{"profile":["http://hl7.org/fhir/us/qicore/StructureDefinition/qicore-observation"]},"status":"final","category":[{"coding":[{"system":"http://terminology.hl7.org/CodeSystem/observation-category","code":"exam","display":"exam","userSelected":true}]}],"code":{"coding":[{"system":"http://loinc.org","code":"11778-8"}]},"subject":{"reference":"Patient/4fc56a9c-8f39-4760-bcbf-1fd75b376b5a"},"effectiveDateTime":"2024-02-01T08:00:00.000+00:00","valueDateTime":"2024-02-01T00:00:00.000+00:00"},"request":{"method":"PUT","url":"Observation/11cd4372-9be1-4946-8a50-2a2aebe55827"}},{"fullUrl":"https://madie.cms.gov/Encounter/86a85bf0-035c-46b3-8eb9-da98dde5c7e9","resource":{"resourceType":"Encounter","id":"86a85bf0-035c-46b3-8eb9-da98dde5c7e9","meta":{"profile":["http://hl7.org/fhir/us/qicore/StructureDefinition/qicore-encounter"]},"status":"finished","class":{"system":"http://terminology.hl7.org/CodeSystem/v3-ActCode","code":"IMP","display":"inpatient encounter"},"type":[{"coding":[{"system":"http://snomed.info/sct","code":"183452005"}]}],"subject":{"reference":"Patient/4fc56a9c-8f39-4760-bcbf-1fd75b376b5a"},"period":{"start":"2024-02-01T08:00:00.000Z","end":"2024-02-05T08:15:00.000Z"},"diagnosis":[{"extension":[{"url":"http://hl7.org/fhir/us/qicore/StructureDefinition/qicore-encounter-diagnosisPresentOnAdmission","valueCodeableConcept":{"coding":[{"system":"https://www.cms.gov/Medicare/Medicare-Fee-for-Service-Payment/HospitalAcqCond/Coding","code":"Y"}]}}],"condition":{"reference":"Condition/e863843d-7f4e-4995-b591-79457bf5800f"}},{"extension":[{"url":"http://hl7.org/fhir/us/qicore/StructureDefinition/qicore-encounter-diagnosisPresentOnAdmission","valueCodeableConcept":{"coding":[{"system":"https://www.cms.gov/Medicare/Medicare-Fee-for-Service-Payment/HospitalAcqCond/Coding","code":"N"}]}}],"condition":{"reference":"Condition/4428b6a3-5efb-462d-b934-5ff4723c3629"}}]},"request":{"method":"PUT","url":"Encounter/86a85bf0-035c-46b3-8eb9-da98dde5c7e9"}},{"fullUrl":"https://madie.cms.gov/Procedure/719d5cec-bef9-4391-a7a5-7d26c627d96b","resource":{"resourceType":"Procedure","id":"719d5cec-bef9-4391-a7a5-7d26c627d96b","meta":{"profile":["http://hl7.org/fhir/us/qicore/StructureDefinition/qicore-procedure"]},"extension":[{"url":"http://hl7.org/fhir/us/qicore/StructureDefinition/qicore-recorded","valueDateTime":"2013-04-05T09:35:00-04:00"}],"status":"completed","code":{"coding":[{"system":"http://snomed.info/sct","code":"10745001"}]},"subject":{"reference":"Patient/4fc56a9c-8f39-4760-bcbf-1fd75b376b5a"},"performedDateTime":"2024-02-01T08:00:00.000+00:00"},"request":{"method":"PUT","url":"Procedure/719d5cec-bef9-4391-a7a5-7d26c627d96b"}},{"fullUrl":"https://madie.cms.gov/Condition/4428b6a3-5efb-462d-b934-5ff4723c3629","resource":{"resourceType":"Condition","id":"4428b6a3-5efb-462d-b934-5ff4723c3629","meta":{"profile":["http://hl7.org/fhir/us/qicore/StructureDefinition/qicore-condition"]},"category":[{"coding":[{"system":"http://terminology.hl7.org/CodeSystem/condition-category","code":"encounter-diagnosis","display":"Encounter Diagnosis"}]}],"code":{"coding":[{"system":"http://hl7.org/fhir/sid/icd-10-cm","version":"2023","code":"A32.7","display":"Listerial sepsis","userSelected":true}]},"subject":{"reference":"Patient/4fc56a9c-8f39-4760-bcbf-1fd75b376b5a"},"recordedDate":"2024-10-26T08:00:00.000+00:00"},"request":{"method":"PUT","url":"Condition/4428b6a3-5efb-462d-b934-5ff4723c3629"}},{"fullUrl":"https://madie.cms.gov/Condition/e863843d-7f4e-4995-b591-79457bf5800f","resource":{"resourceType":"Condition","id":"e863843d-7f4e-4995-b591-79457bf5800f","meta":{"profile":["http://hl7.org/fhir/us/qicore/StructureDefinition/qicore-condition"]},"category":[{"coding":[{"system":"http://terminology.hl7.org/CodeSystem/condition-category","code":"encounter-diagnosis","display":"Encounter Diagnosis"}]}],"code":{"coding":[{"system":"http://hl7.org/fhir/sid/icd-10-cm","version":"2023","code":"I10","display":"Hypertension","userSelected":true}]},"subject":{"reference":"Patient/4fc56a9c-8f39-4760-bcbf-1fd75b376b5a"},"recordedDate":"2024-10-26T08:00:00.000+00:00"},"request":{"method":"PUT","url":"Condition/e863843d-7f4e-4995-b591-79457bf5800f"}},{"fullUrl":"https://madie.cms.gov/MeasureReport/fd07157c-2918-45e0-a601-320ae55a522e","resource":{"resourceType":"MeasureReport","id":"fd07157c-2918-45e0-a601-320ae55a522e","meta":{"profile":["http://hl7.org/fhir/us/cqfmeasures/StructureDefinition/test-case-cqfm"]},"contained":[{"resourceType":"Parameters","id":"e23613ab-e80b-4ff3-b031-2456dd844e9d-parameters","parameter":[{"name":"subject","valueString":"4fc56a9c-8f39-4760-bcbf-1fd75b376b5a"}]}],"extension":[{"url":"http://hl7.org/fhir/us/cqfmeasures/StructureDefinition/cqfm-inputParameters","valueReference":{"reference":"#e23613ab-e80b-4ff3-b031-2456dd844e9d-parameters"}},{"url":"http://hl7.org/fhir/us/cqfmeasures/StructureDefinition/cqfm-testCaseDescription","valueMarkdown":"Risk variable of hypertension."}],"modifierExtension":[{"url":"http://hl7.org/fhir/us/cqfmeasures/StructureDefinition/cqfm-isTestCase","valueBoolean":true}],"status":"complete","type":"individual","measure":"https://madie.cms.gov/Measure/SevereObstetricComplicationsFHIR","period":{"start":"2024-01-01","end":"2024-12-31"},"group":[{"population":[{"code":{"coding":[{"system":"http://terminology.hl7.org/CodeSystem/measure-population","code":"initial-population","display":"Initial Population"}]},"count":1},{"code":{"coding":[{"system":"http://terminology.hl7.org/CodeSystem/measure-population","code":"denominator","display":"Denominator"}]},"count":1},{"code":{"coding":[{"system":"http://terminology.hl7.org/CodeSystem/measure-population","code":"denominator-exclusion","display":"Denominator Exclusion"}]},"count":0},{"code":{"coding":[{"system":"http://terminology.hl7.org/CodeSystem/measure-population","code":"numerator","display":"Numerator"}]},"count":1}]}],"evaluatedResource":[{"reference":"Patient/4fc56a9c-8f39-4760-bcbf-1fd75b376b5a"},{"reference":"Observation/dce74348-1a7d-4b5a-bd04-24caf80e69a2"},{"reference":"Observation/11cd4372-9be1-4946-8a50-2a2aebe55827"},{"reference":"Encounter/86a85bf0-035c-46b3-8eb9-da98dde5c7e9"},{"reference":"Procedure/719d5cec-bef9-4391-a7a5-7d26c627d96b"},{"reference":"Condition/4428b6a3-5efb-462d-b934-5ff4723c3629"},{"reference":"Condition/e863843d-7f4e-4995-b591-79457bf5800f"}]},"request":{"method":"PUT","url":"MeasureReport/fd07157c-2918-45e0-a601-320ae55a522e"}}]}