{"resourceType":"Bundle","id":"tests-0edc789c-4379-4bba-af8b-53473a21a53a-bundle","type":"transaction","entry":[{"fullUrl":"https://madie.cms.gov/Patient/0edc789c-4379-4bba-af8b-53473a21a53a","resource":{"resourceType":"Patient","id":"0edc789c-4379-4bba-af8b-53473a21a53a","meta":{"profile":["http://hl7.org/fhir/us/qicore/StructureDefinition/qicore-patient"]},"text":{"status":"generated","div":"<div xmlns=\"http://www.w3.org/1999/xhtml\"><div class=\"hapiHeaderText\">Risk_RenalDisease<b>RISKPass </b></div><table class=\"hapiPropertyTable\"><tbody><tr><td>Date of birth</td><td><span>01 February 2004</span></td></tr></tbody></table></div>"},"extension":[{"url":"http://hl7.org/fhir/us/core/StructureDefinition/us-core-race","extension":[{"url":"ombCategory","valueCoding":{"system":"urn:oid:2.16.840.1.113883.6.238","code":"1002-5","display":"American Indian or Alaska Native","userSelected":true}},{"url":"text","valueString":"American Indian or Alaska Native"}]},{"url":"http://hl7.org/fhir/us/core/StructureDefinition/us-core-ethnicity","extension":[{"url":"ombCategory","valueCoding":{"system":"urn:oid:2.16.840.1.113883.6.238","code":"2135-2","display":"Hispanic or Latino","userSelected":true}},{"url":"text","valueString":"Hispanic or Latino"}]}],"identifier":[{"type":{"coding":[{"system":"http://terminology.hl7.org/CodeSystem/v2-0203","code":"MR"}]},"system":"https://bonnie-fhir.healthit.gov/","value":"63594c7a6aee9629c82981df"}],"active":true,"name":[{"use":"usual","family":"RiskPass","given":["Risk_RenalDisease"]}],"gender":"female","birthDate":"2004-02-01"},"request":{"method":"PUT","url":"Patient/0edc789c-4379-4bba-af8b-53473a21a53a"}},{"fullUrl":"https://madie.cms.gov/Observation/95927f9f-4a3b-4bc4-99b7-9598b5fcb632","resource":{"resourceType":"Observation","id":"95927f9f-4a3b-4bc4-99b7-9598b5fcb632","meta":{"profile":["http://hl7.org/fhir/us/qicore/StructureDefinition/qicore-observation"]},"status":"final","category":[{"coding":[{"system":"http://terminology.hl7.org/CodeSystem/observation-category","code":"exam","display":"exam","userSelected":true}]}],"code":{"coding":[{"system":"http://loinc.org","code":"93857-1"}]},"subject":{"reference":"Patient/0edc789c-4379-4bba-af8b-53473a21a53a"},"effectiveDateTime":"2024-02-01T08:00:00.000+00:00","valueDateTime":"2024-02-01T08:00:00+00:00"},"request":{"method":"PUT","url":"Observation/95927f9f-4a3b-4bc4-99b7-9598b5fcb632"}},{"fullUrl":"https://madie.cms.gov/Observation/a1e8ba81-a7d4-4c41-b39f-eb9872849ae0","resource":{"resourceType":"Observation","id":"a1e8ba81-a7d4-4c41-b39f-eb9872849ae0","meta":{"profile":["http://hl7.org/fhir/us/qicore/StructureDefinition/qicore-observation"]},"status":"final","category":[{"coding":[{"system":"http://terminology.hl7.org/CodeSystem/observation-category","code":"exam","display":"exam","userSelected":true}]}],"code":{"coding":[{"system":"http://loinc.org","code":"11778-8"}]},"subject":{"reference":"Patient/0edc789c-4379-4bba-af8b-53473a21a53a"},"effectiveDateTime":"2024-02-01T08:00:00.000+00:00","valueDateTime":"2024-02-01T00:00:00.000+00:00"},"request":{"method":"PUT","url":"Observation/a1e8ba81-a7d4-4c41-b39f-eb9872849ae0"}},{"fullUrl":"https://madie.cms.gov/Encounter/2c9a708f-89b4-4525-a39b-21188beb7d64","resource":{"resourceType":"Encounter","id":"2c9a708f-89b4-4525-a39b-21188beb7d64","meta":{"profile":["http://hl7.org/fhir/us/qicore/StructureDefinition/qicore-encounter"]},"status":"finished","class":{"system":"http://terminology.hl7.org/CodeSystem/v3-ActCode","code":"IMP","display":"inpatient encounter"},"type":[{"coding":[{"system":"http://snomed.info/sct","code":"183452005"}]}],"subject":{"reference":"Patient/0edc789c-4379-4bba-af8b-53473a21a53a"},"period":{"start":"2024-02-01T08:00:00.000Z","end":"2024-02-05T08:15:00.000Z"},"diagnosis":[{"extension":[{"url":"http://hl7.org/fhir/us/qicore/StructureDefinition/qicore-encounter-diagnosisPresentOnAdmission","valueCodeableConcept":{"coding":[{"system":"https://www.cms.gov/Medicare/Medicare-Fee-for-Service-Payment/HospitalAcqCond/Coding","code":"Y"}]}}],"condition":{"reference":"Condition/ac0f466c-5bb0-42a8-912b-e78c4f8a6251"}},{"extension":[{"url":"http://hl7.org/fhir/us/qicore/StructureDefinition/qicore-encounter-diagnosisPresentOnAdmission","valueCodeableConcept":{"coding":[{"system":"https://www.cms.gov/Medicare/Medicare-Fee-for-Service-Payment/HospitalAcqCond/Coding","code":"N"}]}}],"condition":{"reference":"Condition/578b6b52-aa06-4696-978c-9ed667d9e4e2"}}]},"request":{"method":"PUT","url":"Encounter/2c9a708f-89b4-4525-a39b-21188beb7d64"}},{"fullUrl":"https://madie.cms.gov/Procedure/277fc9b9-8a16-4480-9b35-6e50086483a8","resource":{"resourceType":"Procedure","id":"277fc9b9-8a16-4480-9b35-6e50086483a8","meta":{"profile":["http://hl7.org/fhir/us/qicore/StructureDefinition/qicore-procedure"]},"extension":[{"url":"http://hl7.org/fhir/us/qicore/StructureDefinition/qicore-recorded","valueDateTime":"2013-04-05T09:35:00-04:00"}],"status":"completed","code":{"coding":[{"system":"http://snomed.info/sct","code":"10745001"}]},"subject":{"reference":"Patient/0edc789c-4379-4bba-af8b-53473a21a53a"},"performedDateTime":"2024-02-01T08:00:00.000+00:00"},"request":{"method":"PUT","url":"Procedure/277fc9b9-8a16-4480-9b35-6e50086483a8"}},{"fullUrl":"https://madie.cms.gov/Condition/578b6b52-aa06-4696-978c-9ed667d9e4e2","resource":{"resourceType":"Condition","id":"578b6b52-aa06-4696-978c-9ed667d9e4e2","meta":{"profile":["http://hl7.org/fhir/us/qicore/StructureDefinition/qicore-condition"]},"category":[{"coding":[{"system":"http://terminology.hl7.org/CodeSystem/condition-category","code":"encounter-diagnosis","display":"Encounter Diagnosis"}]}],"code":{"coding":[{"system":"http://hl7.org/fhir/sid/icd-10-cm","version":"2023","code":"A32.7","display":"Listerial sepsis","userSelected":true}]},"subject":{"reference":"Patient/0edc789c-4379-4bba-af8b-53473a21a53a"},"recordedDate":"2024-10-26T08:00:00.000+00:00"},"request":{"method":"PUT","url":"Condition/578b6b52-aa06-4696-978c-9ed667d9e4e2"}},{"fullUrl":"https://madie.cms.gov/Condition/ac0f466c-5bb0-42a8-912b-e78c4f8a6251","resource":{"resourceType":"Condition","id":"ac0f466c-5bb0-42a8-912b-e78c4f8a6251","meta":{"profile":["http://hl7.org/fhir/us/qicore/StructureDefinition/qicore-condition"]},"category":[{"coding":[{"system":"http://terminology.hl7.org/CodeSystem/condition-category","code":"encounter-diagnosis","display":"Encounter Diagnosis"}]}],"code":{"coding":[{"system":"http://hl7.org/fhir/sid/icd-10-cm","version":"2023","code":"I12.0","display":"Renal Disease","userSelected":true}]},"subject":{"reference":"Patient/0edc789c-4379-4bba-af8b-53473a21a53a"},"recordedDate":"2024-10-26T08:00:00.000+00:00"},"request":{"method":"PUT","url":"Condition/ac0f466c-5bb0-42a8-912b-e78c4f8a6251"}},{"fullUrl":"https://madie.cms.gov/MeasureReport/0962eca3-69ca-449a-9ba0-8ab06273c307","resource":{"resourceType":"MeasureReport","id":"0962eca3-69ca-449a-9ba0-8ab06273c307","meta":{"profile":["http://hl7.org/fhir/us/cqfmeasures/StructureDefinition/test-case-cqfm"]},"contained":[{"resourceType":"Parameters","id":"dfcf277f-e81b-4035-b167-ad858f0e9d97-parameters","parameter":[{"name":"subject","valueString":"0edc789c-4379-4bba-af8b-53473a21a53a"}]}],"extension":[{"url":"http://hl7.org/fhir/us/cqfmeasures/StructureDefinition/cqfm-inputParameters","valueReference":{"reference":"#dfcf277f-e81b-4035-b167-ad858f0e9d97-parameters"}},{"url":"http://hl7.org/fhir/us/cqfmeasures/StructureDefinition/cqfm-testCaseDescription","valueMarkdown":"Risk variable of renal disease\n\n"}],"modifierExtension":[{"url":"http://hl7.org/fhir/us/cqfmeasures/StructureDefinition/cqfm-isTestCase","valueBoolean":true}],"status":"complete","type":"individual","measure":"https://madie.cms.gov/Measure/SevereObstetricComplicationsFHIR","period":{"start":"2024-01-01","end":"2024-12-31"},"group":[{"population":[{"code":{"coding":[{"system":"http://terminology.hl7.org/CodeSystem/measure-population","code":"initial-population","display":"Initial Population"}]},"count":1},{"code":{"coding":[{"system":"http://terminology.hl7.org/CodeSystem/measure-population","code":"denominator","display":"Denominator"}]},"count":1},{"code":{"coding":[{"system":"http://terminology.hl7.org/CodeSystem/measure-population","code":"denominator-exclusion","display":"Denominator Exclusion"}]},"count":0},{"code":{"coding":[{"system":"http://terminology.hl7.org/CodeSystem/measure-population","code":"numerator","display":"Numerator"}]},"count":1}]}],"evaluatedResource":[{"reference":"Patient/0edc789c-4379-4bba-af8b-53473a21a53a"},{"reference":"Observation/95927f9f-4a3b-4bc4-99b7-9598b5fcb632"},{"reference":"Observation/a1e8ba81-a7d4-4c41-b39f-eb9872849ae0"},{"reference":"Encounter/2c9a708f-89b4-4525-a39b-21188beb7d64"},{"reference":"Procedure/277fc9b9-8a16-4480-9b35-6e50086483a8"},{"reference":"Condition/578b6b52-aa06-4696-978c-9ed667d9e4e2"},{"reference":"Condition/ac0f466c-5bb0-42a8-912b-e78c4f8a6251"}]},"request":{"method":"PUT","url":"MeasureReport/0962eca3-69ca-449a-9ba0-8ab06273c307"}}]}