{"resourceType":"Bundle","id":"tests-453b2400-11cb-4963-9ace-131e6a80600e-bundle","type":"transaction","entry":[{"fullUrl":"https://madie.cms.gov/Patient/453b2400-11cb-4963-9ace-131e6a80600e","resource":{"resourceType":"Patient","id":"453b2400-11cb-4963-9ace-131e6a80600e","meta":{"profile":["http://hl7.org/fhir/us/qicore/StructureDefinition/qicore-patient"]},"text":{"status":"generated","div":"<div xmlns=\"http://www.w3.org/1999/xhtml\"><div class=\"hapiHeaderText\">LastAssPrfEstDELRelvTm_24Hr01Min00Sec_B4DELRsltDtTime <b>DENOMPASS </b></div><table class=\"hapiPropertyTable\"><tbody><tr><td>Date of birth</td><td><span>01 February 2004</span></td></tr></tbody></table></div>"},"extension":[{"url":"http://hl7.org/fhir/us/core/StructureDefinition/us-core-race","extension":[{"url":"ombCategory","valueCoding":{"system":"urn:oid:2.16.840.1.113883.6.238","code":"1002-5","display":"American Indian or Alaska Native","userSelected":true}},{"url":"text","valueString":"American Indian or Alaska Native"}]},{"url":"http://hl7.org/fhir/us/core/StructureDefinition/us-core-ethnicity","extension":[{"url":"ombCategory","valueCoding":{"system":"urn:oid:2.16.840.1.113883.6.238","code":"2135-2","display":"Hispanic or Latino","userSelected":true}},{"url":"text","valueString":"Hispanic or Latino"}]}],"identifier":[{"type":{"coding":[{"system":"http://terminology.hl7.org/CodeSystem/v2-0203","code":"MR"}]},"system":"https://bonnie-fhir.healthit.gov/","value":"633b3f9e0968f80122503cd6"}],"active":true,"name":[{"use":"usual","family":"DENOMPass","given":["LastAssPrfEstDELRelvTm_24Hr01Min00Sec_B4DELRsltDtTime"]}],"gender":"female","birthDate":"2004-02-01"},"request":{"method":"PUT","url":"Patient/453b2400-11cb-4963-9ace-131e6a80600e"}},{"fullUrl":"https://madie.cms.gov/Observation/63eb17cc-1a43-4ed5-be02-f75c7a0bd75e","resource":{"resourceType":"Observation","id":"63eb17cc-1a43-4ed5-be02-f75c7a0bd75e","meta":{"profile":["http://hl7.org/fhir/us/qicore/StructureDefinition/qicore-observation"]},"status":"final","category":[{"coding":[{"system":"http://terminology.hl7.org/CodeSystem/observation-category","code":"exam","display":"exam","userSelected":true}]}],"code":{"coding":[{"system":"http://loinc.org","code":"93857-1"}]},"subject":{"reference":"Patient/453b2400-11cb-4963-9ace-131e6a80600e"},"effectiveDateTime":"2024-02-01T08:00:00.000+00:00","valueDateTime":"2024-02-01T08:00:00+00:00"},"request":{"method":"PUT","url":"Observation/63eb17cc-1a43-4ed5-be02-f75c7a0bd75e"}},{"fullUrl":"https://madie.cms.gov/Observation/cc53745e-9385-4833-acdc-de67cbccc466","resource":{"resourceType":"Observation","id":"cc53745e-9385-4833-acdc-de67cbccc466","meta":{"profile":["http://hl7.org/fhir/us/qicore/StructureDefinition/qicore-observation"]},"status":"final","category":[{"coding":[{"system":"http://terminology.hl7.org/CodeSystem/observation-category","code":"exam","display":"exam","userSelected":true}]}],"code":{"coding":[{"system":"http://loinc.org","code":"11778-8"}]},"subject":{"reference":"Patient/453b2400-11cb-4963-9ace-131e6a80600e"},"effectiveDateTime":"2024-01-31T07:59:00.000+00:00","valueDateTime":"2024-02-01T08:00:00.000+00:00"},"request":{"method":"PUT","url":"Observation/cc53745e-9385-4833-acdc-de67cbccc466"}},{"fullUrl":"https://madie.cms.gov/Encounter/6b69313b-d7f6-48ca-aa66-db8f15de605e","resource":{"resourceType":"Encounter","id":"6b69313b-d7f6-48ca-aa66-db8f15de605e","meta":{"profile":["http://hl7.org/fhir/us/qicore/StructureDefinition/qicore-encounter"]},"status":"finished","class":{"system":"http://terminology.hl7.org/CodeSystem/v3-ActCode","code":"IMP","display":"inpatient encounter"},"type":[{"coding":[{"system":"http://snomed.info/sct","code":"183452005"}]}],"subject":{"reference":"Patient/453b2400-11cb-4963-9ace-131e6a80600e"},"period":{"start":"2024-02-01T08:00:00.000Z","end":"2024-02-05T08:15:00.000Z"}},"request":{"method":"PUT","url":"Encounter/6b69313b-d7f6-48ca-aa66-db8f15de605e"}},{"fullUrl":"https://madie.cms.gov/Procedure/c1cde513-7562-4b7a-9c8c-980283dea15a","resource":{"resourceType":"Procedure","id":"c1cde513-7562-4b7a-9c8c-980283dea15a","meta":{"profile":["http://hl7.org/fhir/us/qicore/StructureDefinition/qicore-procedure"]},"extension":[{"url":"http://hl7.org/fhir/us/qicore/StructureDefinition/qicore-recorded","valueDateTime":"2013-04-05T09:35:00-04:00"}],"status":"completed","code":{"coding":[{"system":"http://snomed.info/sct","code":"10745001"}]},"subject":{"reference":"Patient/453b2400-11cb-4963-9ace-131e6a80600e"},"performedPeriod":{"start":"2024-02-01T08:00:00.000Z","end":"2024-02-05T08:15:00.000Z"}},"request":{"method":"PUT","url":"Procedure/c1cde513-7562-4b7a-9c8c-980283dea15a"}},{"fullUrl":"https://madie.cms.gov/Coverage/6eae5595-2640-4d0b-ac6e-9177dcdacc39","resource":{"resourceType":"Coverage","id":"6eae5595-2640-4d0b-ac6e-9177dcdacc39","meta":{"profile":["http://hl7.org/fhir/us/qicore/StructureDefinition/qicore-coverage"]},"status":"active","beneficiary":{"reference":"Patient/453b2400-11cb-4963-9ace-131e6a80600e"},"payor":[{"reference":"Organization/218c190b-bc1f-472b-a055-9df99cccd14b"}]},"request":{"method":"PUT","url":"Coverage/6eae5595-2640-4d0b-ac6e-9177dcdacc39"}},{"fullUrl":"https://madie.cms.gov/Organization/218c190b-bc1f-472b-a055-9df99cccd14b","resource":{"resourceType":"Organization","id":"218c190b-bc1f-472b-a055-9df99cccd14b","meta":{"profile":["http://hl7.org/fhir/us/qicore/StructureDefinition/qicore-organization"]},"identifier":[{"use":"temp","system":"urn:oid:2.16.840.1.113883.4.4","value":"21-3259825"}],"active":true,"type":[{"coding":[{"system":"http://terminology.hl7.org/CodeSystem/organization-type","code":"pay","display":"Payer"}]}],"name":"Blue Cross Blue Shield of Texas","telecom":[{"system":"phone","value":"(+1) 972-766-6900"}],"address":[{"use":"billing","type":"postal","line":["P.O. Box 660044"],"city":"Dallas","state":"TX","postalCode":"75266-0044","country":"USA"}]},"request":{"method":"PUT","url":"Organization/218c190b-bc1f-472b-a055-9df99cccd14b"}},{"fullUrl":"https://madie.cms.gov/Practitioner/559d6dfa-87a1-4b3c-b82e-b56981f80fea","resource":{"resourceType":"Practitioner","id":"559d6dfa-87a1-4b3c-b82e-b56981f80fea","identifier":[{"system":"http://hl7.org/fhir/sid/us-npi","value":"123456"}],"name":[{"family":"Evil","prefix":["Dr"]}]},"request":{"method":"PUT","url":"Practitioner/559d6dfa-87a1-4b3c-b82e-b56981f80fea"}},{"fullUrl":"https://madie.cms.gov/MeasureReport/047ae2a3-f6b2-4524-af9c-f42b898baf62","resource":{"resourceType":"MeasureReport","id":"047ae2a3-f6b2-4524-af9c-f42b898baf62","meta":{"profile":["http://hl7.org/fhir/us/cqfmeasures/StructureDefinition/test-case-cqfm"]},"contained":[{"resourceType":"Parameters","id":"685d1080-6b03-4e2b-90b6-3d3c7657921c-parameters","parameter":[{"name":"subject","valueString":"453b2400-11cb-4963-9ace-131e6a80600e"}]}],"extension":[{"url":"http://hl7.org/fhir/us/cqfmeasures/StructureDefinition/cqfm-inputParameters","valueReference":{"reference":"#685d1080-6b03-4e2b-90b6-3d3c7657921c-parameters"}},{"url":"http://hl7.org/fhir/us/cqfmeasures/StructureDefinition/cqfm-testCaseDescription","valueMarkdown":"Last assessment Performed, Estimated Delivery Date, Relevant time, 24 hours 1 min before Delivery Result Date/Time.  \n"}],"modifierExtension":[{"url":"http://hl7.org/fhir/us/cqfmeasures/StructureDefinition/cqfm-isTestCase","valueBoolean":true}],"status":"complete","type":"individual","measure":"https://madie.cms.gov/Measure/SevereObstetricComplicationsFHIR","period":{"start":"2024-01-01","end":"2024-12-31"},"group":[{"population":[{"code":{"coding":[{"system":"http://terminology.hl7.org/CodeSystem/measure-population","code":"initial-population","display":"Initial Population"}]},"count":1},{"code":{"coding":[{"system":"http://terminology.hl7.org/CodeSystem/measure-population","code":"denominator","display":"Denominator"}]},"count":1},{"code":{"coding":[{"system":"http://terminology.hl7.org/CodeSystem/measure-population","code":"denominator-exclusion","display":"Denominator Exclusion"}]},"count":0},{"code":{"coding":[{"system":"http://terminology.hl7.org/CodeSystem/measure-population","code":"numerator","display":"Numerator"}]},"count":0}]}],"evaluatedResource":[{"reference":"Patient/453b2400-11cb-4963-9ace-131e6a80600e"},{"reference":"Observation/63eb17cc-1a43-4ed5-be02-f75c7a0bd75e"},{"reference":"Observation/cc53745e-9385-4833-acdc-de67cbccc466"},{"reference":"Encounter/6b69313b-d7f6-48ca-aa66-db8f15de605e"},{"reference":"Procedure/c1cde513-7562-4b7a-9c8c-980283dea15a"},{"reference":"Coverage/6eae5595-2640-4d0b-ac6e-9177dcdacc39"},{"reference":"Organization/218c190b-bc1f-472b-a055-9df99cccd14b"},{"reference":"Practitioner/559d6dfa-87a1-4b3c-b82e-b56981f80fea"}]},"request":{"method":"PUT","url":"MeasureReport/047ae2a3-f6b2-4524-af9c-f42b898baf62"}}]}