{"resourceType":"Bundle","id":"tests-7b945524-ba76-4702-b51c-6aea377321fc-bundle","type":"transaction","entry":[{"fullUrl":"https://madie.cms.gov/Patient/7b945524-ba76-4702-b51c-6aea377321fc","resource":{"resourceType":"Patient","id":"7b945524-ba76-4702-b51c-6aea377321fc","meta":{"profile":["http://hl7.org/fhir/us/qicore/StructureDefinition/qicore-patient"]},"text":{"status":"generated","div":"<div xmlns=\"http://www.w3.org/1999/xhtml\"><div class=\"hapiHeaderText\">RISKSBPRelDtTimeEQDelStartless1Min <b>RISKPass </b></div><table class=\"hapiPropertyTable\"><tbody><tr><td>Date of birth</td><td><span>01 February 2004</span></td></tr></tbody></table></div>"},"extension":[{"url":"http://hl7.org/fhir/us/core/StructureDefinition/us-core-race","extension":[{"url":"ombCategory","valueCoding":{"system":"urn:oid:2.16.840.1.113883.6.238","code":"1002-5","display":"American Indian or Alaska Native","userSelected":true}},{"url":"text","valueString":"American Indian or Alaska Native"}]},{"url":"http://hl7.org/fhir/us/core/StructureDefinition/us-core-ethnicity","extension":[{"url":"ombCategory","valueCoding":{"system":"urn:oid:2.16.840.1.113883.6.238","code":"2135-2","display":"Hispanic or Latino","userSelected":true}},{"url":"text","valueString":"Hispanic or Latino"}]}],"identifier":[{"type":{"coding":[{"system":"http://terminology.hl7.org/CodeSystem/v2-0203","code":"MR"}]},"system":"https://bonnie-fhir.healthit.gov/","value":"63598dd9c35f1c19df09adbd"}],"active":true,"name":[{"use":"usual","family":"RiskPass","given":["RISKSBPRelDtTimeEQDelStartless1Min"]}],"gender":"female","birthDate":"2004-02-01"},"request":{"method":"PUT","url":"Patient/7b945524-ba76-4702-b51c-6aea377321fc"}},{"fullUrl":"https://madie.cms.gov/Observation/1b9a9cdd-af2a-41cb-addd-64cafccc8cf2","resource":{"resourceType":"Observation","id":"1b9a9cdd-af2a-41cb-addd-64cafccc8cf2","meta":{"profile":["http://hl7.org/fhir/us/qicore/StructureDefinition/qicore-observation"]},"status":"final","category":[{"coding":[{"system":"http://terminology.hl7.org/CodeSystem/observation-category","code":"exam","display":"exam","userSelected":true}]}],"code":{"coding":[{"system":"http://loinc.org","code":"93857-1"}]},"subject":{"reference":"Patient/7b945524-ba76-4702-b51c-6aea377321fc"},"effectiveDateTime":"2024-02-01T08:00:00.000+00:00","valueDateTime":"2024-02-01T08:00:00+00:00"},"request":{"method":"PUT","url":"Observation/1b9a9cdd-af2a-41cb-addd-64cafccc8cf2"}},{"fullUrl":"https://madie.cms.gov/Observation/2466ae12-d46d-4f2f-b150-bc4f84ca6a46","resource":{"resourceType":"Observation","id":"2466ae12-d46d-4f2f-b150-bc4f84ca6a46","meta":{"profile":["http://hl7.org/fhir/us/qicore/StructureDefinition/qicore-observation"]},"status":"final","category":[{"coding":[{"system":"http://terminology.hl7.org/CodeSystem/observation-category","code":"exam","display":"exam","userSelected":true}]}],"code":{"coding":[{"system":"http://loinc.org","code":"11884-4"}]},"subject":{"reference":"Patient/7b945524-ba76-4702-b51c-6aea377321fc"},"effectiveDateTime":"2024-02-01T08:00:00.000+00:00","valueQuantity":{"value":21,"system":"http://unitsofmeasure.org","code":"wk"}},"request":{"method":"PUT","url":"Observation/2466ae12-d46d-4f2f-b150-bc4f84ca6a46"}},{"fullUrl":"https://madie.cms.gov/Encounter/1ea120ec-8b7c-47c8-9e56-ad089da2df47","resource":{"resourceType":"Encounter","id":"1ea120ec-8b7c-47c8-9e56-ad089da2df47","meta":{"profile":["http://hl7.org/fhir/us/qicore/StructureDefinition/qicore-encounter"]},"status":"finished","class":{"system":"http://terminology.hl7.org/CodeSystem/v3-ActCode","code":"IMP","display":"inpatient encounter"},"type":[{"coding":[{"system":"http://snomed.info/sct","code":"183452005"}]}],"subject":{"reference":"Patient/7b945524-ba76-4702-b51c-6aea377321fc"},"period":{"start":"2024-02-01T08:00:00.000+00:00","end":"2024-02-05T08:15:00.000+00:00"}},"request":{"method":"PUT","url":"Encounter/1ea120ec-8b7c-47c8-9e56-ad089da2df47"}},{"fullUrl":"https://madie.cms.gov/Encounter/aef94e32-1e09-458d-8824-e5a194f4e837","resource":{"resourceType":"Encounter","id":"aef94e32-1e09-458d-8824-e5a194f4e837","meta":{"profile":["http://hl7.org/fhir/us/qicore/StructureDefinition/qicore-encounter"]},"status":"finished","class":{"system":"http://terminology.hl7.org/CodeSystem/v3-ActCode","code":"EMER","display":"emergency"},"type":[{"coding":[{"system":"http://snomed.info/sct","code":"4525004"}]}],"subject":{"reference":"Patient/7b945524-ba76-4702-b51c-6aea377321fc"},"period":{"start":"2024-02-01T07:00:00.000+00:00","end":"2024-02-01T07:59:00.000+00:00"}},"request":{"method":"PUT","url":"Encounter/aef94e32-1e09-458d-8824-e5a194f4e837"}},{"fullUrl":"https://madie.cms.gov/Procedure/19e0dad3-f310-4865-9518-68c16f1d2ae2","resource":{"resourceType":"Procedure","id":"19e0dad3-f310-4865-9518-68c16f1d2ae2","meta":{"profile":["http://hl7.org/fhir/us/qicore/StructureDefinition/qicore-procedure"]},"extension":[{"url":"http://hl7.org/fhir/us/qicore/StructureDefinition/qicore-recorded","valueDateTime":"2024-02-04T09:35:00-04:00"}],"status":"completed","code":{"coding":[{"system":"http://snomed.info/sct","code":"10745001"}]},"subject":{"reference":"Patient/7b945524-ba76-4702-b51c-6aea377321fc"},"performedPeriod":{"start":"2024-02-01T08:00:00.000+00:00","end":"2024-02-05T08:15:00.000+00:00"}},"request":{"method":"PUT","url":"Procedure/19e0dad3-f310-4865-9518-68c16f1d2ae2"}},{"fullUrl":"https://madie.cms.gov/Observation/2acdce6a-e89a-4dc6-8762-c1592feb08f2","resource":{"resourceType":"Observation","id":"2acdce6a-e89a-4dc6-8762-c1592feb08f2","meta":{"profile":["http://hl7.org/fhir/StructureDefinition/bp"]},"status":"final","category":[{"coding":[{"system":"http://terminology.hl7.org/CodeSystem/observation-category","code":"vital-signs","display":"vital-signs","userSelected":true}]}],"code":{"coding":[{"system":"http://loinc.org","code":"85354-9","display":"Blood pressure panel with all children optional"}]},"subject":{"reference":"Patient/7b945524-ba76-4702-b51c-6aea377321fc"},"effectiveDateTime":"2024-02-01T07:59:00.000+00:00","component":[{"code":{"coding":[{"system":"http://loinc.org","code":"8480-6","display":"Systolic blood pressure"}]},"valueQuantity":{"value":165,"unit":"mmHg","system":"http://unitsofmeasure.org","code":"mm[Hg]"}},{"code":{"coding":[{"system":"http://loinc.org","code":"8462-4","display":"Diastolic blood pressure"}]},"valueQuantity":{"value":85,"unit":"mmHg","system":"http://unitsofmeasure.org","code":"mm[Hg]"}}]},"request":{"method":"PUT","url":"Observation/2acdce6a-e89a-4dc6-8762-c1592feb08f2"}},{"fullUrl":"https://madie.cms.gov/MeasureReport/c47ac3f6-a3f3-4776-b773-e5d780f70e21","resource":{"resourceType":"MeasureReport","id":"c47ac3f6-a3f3-4776-b773-e5d780f70e21","meta":{"profile":["http://hl7.org/fhir/us/cqfmeasures/StructureDefinition/test-case-cqfm"]},"contained":[{"resourceType":"Parameters","id":"b37f8086-fe41-432e-8c01-b2aed5181f99-parameters","parameter":[{"name":"subject","valueString":"7b945524-ba76-4702-b51c-6aea377321fc"}]}],"extension":[{"url":"http://hl7.org/fhir/us/cqfmeasures/StructureDefinition/cqfm-inputParameters","valueReference":{"reference":"#b37f8086-fe41-432e-8c01-b2aed5181f99-parameters"}},{"url":"http://hl7.org/fhir/us/cqfmeasures/StructureDefinition/cqfm-testCaseDescription","valueMarkdown":"RISKSBPRelDtTimeEQDelStartless1Min\n"}],"modifierExtension":[{"url":"http://hl7.org/fhir/us/cqfmeasures/StructureDefinition/cqfm-isTestCase","valueBoolean":true}],"status":"complete","type":"individual","measure":"https://madie.cms.gov/Measure/SevereObstetricComplicationsFHIR","period":{"start":"2024-01-01","end":"2024-12-31"},"group":[{"population":[{"code":{"coding":[{"system":"http://terminology.hl7.org/CodeSystem/measure-population","code":"initial-population","display":"Initial Population"}]},"count":1},{"code":{"coding":[{"system":"http://terminology.hl7.org/CodeSystem/measure-population","code":"denominator","display":"Denominator"}]},"count":1},{"code":{"coding":[{"system":"http://terminology.hl7.org/CodeSystem/measure-population","code":"denominator-exclusion","display":"Denominator Exclusion"}]},"count":0},{"code":{"coding":[{"system":"http://terminology.hl7.org/CodeSystem/measure-population","code":"numerator","display":"Numerator"}]},"count":0}]}],"evaluatedResource":[{"reference":"Patient/7b945524-ba76-4702-b51c-6aea377321fc"},{"reference":"Observation/1b9a9cdd-af2a-41cb-addd-64cafccc8cf2"},{"reference":"Observation/2466ae12-d46d-4f2f-b150-bc4f84ca6a46"},{"reference":"Encounter/1ea120ec-8b7c-47c8-9e56-ad089da2df47"},{"reference":"Encounter/aef94e32-1e09-458d-8824-e5a194f4e837"},{"reference":"Procedure/19e0dad3-f310-4865-9518-68c16f1d2ae2"},{"reference":"Observation/2acdce6a-e89a-4dc6-8762-c1592feb08f2"}]},"request":{"method":"PUT","url":"MeasureReport/c47ac3f6-a3f3-4776-b773-e5d780f70e21"}}]}