{"resourceType":"Bundle","id":"tests-eb83bbef-ff4c-4ce4-a2fa-1a0e13127fe6-bundle","type":"transaction","entry":[{"fullUrl":"https://madie.cms.gov/Patient/eb83bbef-ff4c-4ce4-a2fa-1a0e13127fe6","resource":{"resourceType":"Patient","id":"eb83bbef-ff4c-4ce4-a2fa-1a0e13127fe6","meta":{"profile":["http://hl7.org/fhir/us/qicore/StructureDefinition/qicore-patient"]},"extension":[{"url":"http://hl7.org/fhir/us/core/StructureDefinition/us-core-race","extension":[{"url":"ombCategory","valueCoding":{"system":"urn:oid:2.16.840.1.113883.6.238","code":"1002-5","display":"American Indian or Alaska Native","userSelected":true}},{"url":"text","valueString":"American Indian or Alaska Native"}]},{"url":"http://hl7.org/fhir/us/core/StructureDefinition/us-core-ethnicity","extension":[{"url":"ombCategory","valueCoding":{"system":"urn:oid:2.16.840.1.113883.6.238","code":"2135-2","display":"Hispanic or Latino","userSelected":true}},{"url":"text","valueString":"Hispanic or Latino"}]}],"identifier":[{"type":{"coding":[{"system":"http://terminology.hl7.org/CodeSystem/v2-0203","code":"MR"}]},"system":"https://bonnie-fhir.healthit.gov/","value":"634efa0b94ec3c7cd8c85e07"}],"name":[{"family":"IPPass","given":["2DeliveryEnc11MosApart"]}],"gender":"female","birthDate":"2000-02-02"},"request":{"method":"PUT","url":"Patient/eb83bbef-ff4c-4ce4-a2fa-1a0e13127fe6"}},{"fullUrl":"https://madie.cms.gov/Encounter/ecb01b9c-523a-420a-8294-acbc95e4a428","resource":{"resourceType":"Encounter","id":"ecb01b9c-523a-420a-8294-acbc95e4a428","meta":{"profile":["http://hl7.org/fhir/us/qicore/StructureDefinition/qicore-encounter"]},"status":"finished","class":{"system":"http://terminology.hl7.org/CodeSystem/v3-ActCode","code":"IMP","display":"inpatient encounter"},"type":[{"coding":[{"system":"http://snomed.info/sct","version":"2022-09","code":"183452005","display":"Emergency hospital admission (procedure)","userSelected":true}]}],"subject":{"reference":"Patient/eb83bbef-ff4c-4ce4-a2fa-1a0e13127fe6"},"period":{"start":"2024-01-01T08:00:00.000+00:00","end":"2024-01-05T08:15:00.000+00:00"}},"request":{"method":"PUT","url":"Encounter/ecb01b9c-523a-420a-8294-acbc95e4a428"}},{"fullUrl":"https://madie.cms.gov/Encounter/bbfdaf0d-eb6f-4143-89fc-26cf7a7f87b1","resource":{"resourceType":"Encounter","id":"bbfdaf0d-eb6f-4143-89fc-26cf7a7f87b1","meta":{"profile":["http://hl7.org/fhir/us/qicore/StructureDefinition/qicore-encounter"]},"status":"finished","class":{"system":"http://terminology.hl7.org/CodeSystem/v3-ActCode","code":"IMP","display":"inpatient encounter"},"type":[{"coding":[{"system":"http://snomed.info/sct","version":"2022-09","code":"183452005","display":"Emergency hospital admission (procedure)","userSelected":true}]}],"subject":{"reference":"Patient/eb83bbef-ff4c-4ce4-a2fa-1a0e13127fe6"},"period":{"start":"2024-02-01T08:00:00.000+00:00","end":"2024-12-05T08:15:00.000+00:00"}},"request":{"method":"PUT","url":"Encounter/bbfdaf0d-eb6f-4143-89fc-26cf7a7f87b1"}},{"fullUrl":"https://madie.cms.gov/Procedure/1b3ff4ca-638c-44b9-b6a0-bbe717c5347c","resource":{"resourceType":"Procedure","id":"1b3ff4ca-638c-44b9-b6a0-bbe717c5347c","meta":{"profile":["http://hl7.org/fhir/us/qicore/StructureDefinition/qicore-procedure"]},"extension":[{"url":"http://hl7.org/fhir/us/qicore/StructureDefinition/qicore-recorded","valueDateTime":"2013-04-05T09:35:00-04:00"}],"status":"completed","code":{"coding":[{"system":"http://snomed.info/sct","version":"2022-09","code":"10745001","display":"Delivery of transverse presentation (procedure)","userSelected":true}]},"subject":{"reference":"Patient/eb83bbef-ff4c-4ce4-a2fa-1a0e13127fe6"},"performedDateTime":"2024-01-01T08:00:00.000+00:00"},"request":{"method":"PUT","url":"Procedure/1b3ff4ca-638c-44b9-b6a0-bbe717c5347c"}},{"fullUrl":"https://madie.cms.gov/Procedure/2f680181-a838-4e4a-a48d-b80985cf39d8","resource":{"resourceType":"Procedure","id":"2f680181-a838-4e4a-a48d-b80985cf39d8","meta":{"profile":["http://hl7.org/fhir/us/qicore/StructureDefinition/qicore-procedure"]},"extension":[{"url":"http://hl7.org/fhir/us/qicore/StructureDefinition/qicore-recorded","valueDateTime":"2013-04-05T09:35:00-04:00"}],"status":"completed","code":{"coding":[{"system":"http://snomed.info/sct","version":"2022-09","code":"10745001","display":"Delivery of transverse presentation (procedure)","userSelected":true}]},"subject":{"reference":"Patient/eb83bbef-ff4c-4ce4-a2fa-1a0e13127fe6"},"performedDateTime":"2024-12-01T08:00:00.000+00:00"},"request":{"method":"PUT","url":"Procedure/2f680181-a838-4e4a-a48d-b80985cf39d8"}},{"fullUrl":"https://madie.cms.gov/Coverage/991fb900-4df1-4895-be90-2b8899aaa964","resource":{"resourceType":"Coverage","id":"991fb900-4df1-4895-be90-2b8899aaa964","meta":{"profile":["http://hl7.org/fhir/us/qicore/StructureDefinition/qicore-coverage"]},"status":"active","beneficiary":{"reference":"Patient/eb83bbef-ff4c-4ce4-a2fa-1a0e13127fe6"},"payor":[{"reference":"Organization/83f06f15-fb02-4e47-9149-89dc81c06654"}]},"request":{"method":"PUT","url":"Coverage/991fb900-4df1-4895-be90-2b8899aaa964"}},{"fullUrl":"https://madie.cms.gov/Organization/83f06f15-fb02-4e47-9149-89dc81c06654","resource":{"resourceType":"Organization","id":"83f06f15-fb02-4e47-9149-89dc81c06654","meta":{"profile":["http://hl7.org/fhir/us/qicore/StructureDefinition/qicore-organization"]},"identifier":[{"use":"temp","system":"urn:oid:2.16.840.1.113883.4.4","value":"21-3259825"}],"active":true,"type":[{"coding":[{"system":"http://terminology.hl7.org/CodeSystem/organization-type","code":"pay","display":"Payer"}]}],"name":"Blue Cross Blue Shield of Texas","telecom":[{"system":"phone","value":"(+1) 972-766-6900"}],"address":[{"use":"billing","type":"postal","line":["P.O. Box 660044"],"city":"Dallas","state":"TX","postalCode":"75266-0044","country":"USA"}]},"request":{"method":"PUT","url":"Organization/83f06f15-fb02-4e47-9149-89dc81c06654"}},{"fullUrl":"https://madie.cms.gov/Practitioner/71a58dca-a236-416c-8e4d-00f2fc819dd7","resource":{"resourceType":"Practitioner","id":"71a58dca-a236-416c-8e4d-00f2fc819dd7","identifier":[{"system":"http://hl7.org/fhir/sid/us-npi","value":"123456"}],"name":[{"family":"Evil","prefix":["Dr"]}]},"request":{"method":"PUT","url":"Practitioner/71a58dca-a236-416c-8e4d-00f2fc819dd7"}},{"fullUrl":"https://madie.cms.gov/MeasureReport/8c5f1065-f5a2-44a1-96a6-5321769d28ad","resource":{"resourceType":"MeasureReport","id":"8c5f1065-f5a2-44a1-96a6-5321769d28ad","meta":{"profile":["http://hl7.org/fhir/us/cqfmeasures/StructureDefinition/test-case-cqfm"]},"contained":[{"resourceType":"Parameters","id":"03fbafea-b4b2-4dec-b490-59712d85cc20-parameters","parameter":[{"name":"subject","valueString":"eb83bbef-ff4c-4ce4-a2fa-1a0e13127fe6"}]}],"extension":[{"url":"http://hl7.org/fhir/us/cqfmeasures/StructureDefinition/cqfm-inputParameters","valueReference":{"reference":"#03fbafea-b4b2-4dec-b490-59712d85cc20-parameters"}},{"url":"http://hl7.org/fhir/us/cqfmeasures/StructureDefinition/cqfm-testCaseDescription","valueMarkdown":"2 Delivery procedures 11 months apart.\n"}],"modifierExtension":[{"url":"http://hl7.org/fhir/us/cqfmeasures/StructureDefinition/cqfm-isTestCase","valueBoolean":true}],"status":"complete","type":"individual","measure":"https://madie.cms.gov/Measure/SevereObstetricComplicationsFHIR","period":{"start":"2024-01-01","end":"2024-12-31"},"group":[{"population":[{"code":{"coding":[{"system":"http://terminology.hl7.org/CodeSystem/measure-population","code":"initial-population","display":"Initial Population"}]},"count":2},{"code":{"coding":[{"system":"http://terminology.hl7.org/CodeSystem/measure-population","code":"denominator","display":"Denominator"}]},"count":0},{"code":{"coding":[{"system":"http://terminology.hl7.org/CodeSystem/measure-population","code":"denominator-exclusion","display":"Denominator Exclusion"}]},"count":0},{"code":{"coding":[{"system":"http://terminology.hl7.org/CodeSystem/measure-population","code":"numerator","display":"Numerator"}]},"count":0}]}],"evaluatedResource":[{"reference":"Patient/eb83bbef-ff4c-4ce4-a2fa-1a0e13127fe6"},{"reference":"Encounter/ecb01b9c-523a-420a-8294-acbc95e4a428"},{"reference":"Encounter/bbfdaf0d-eb6f-4143-89fc-26cf7a7f87b1"},{"reference":"Procedure/1b3ff4ca-638c-44b9-b6a0-bbe717c5347c"},{"reference":"Procedure/2f680181-a838-4e4a-a48d-b80985cf39d8"},{"reference":"Coverage/991fb900-4df1-4895-be90-2b8899aaa964"},{"reference":"Organization/83f06f15-fb02-4e47-9149-89dc81c06654"},{"reference":"Practitioner/71a58dca-a236-416c-8e4d-00f2fc819dd7"}]},"request":{"method":"PUT","url":"MeasureReport/8c5f1065-f5a2-44a1-96a6-5321769d28ad"}}]}