{"resourceType":"Bundle","id":"tests-1a5d2c56-6234-413b-8531-7d1da9848edd-bundle","type":"transaction","entry":[{"fullUrl":"https://madie.cms.gov/Patient/1a5d2c56-6234-413b-8531-7d1da9848edd","resource":{"resourceType":"Patient","id":"1a5d2c56-6234-413b-8531-7d1da9848edd","meta":{"profile":["http://hl7.org/fhir/us/qicore/StructureDefinition/qicore-patient"]},"text":{"status":"generated","div":"<div xmlns=\"http://www.w3.org/1999/xhtml\"><div class=\"hapiHeaderText\">AssPrfDelRelvDtEQIPEnd <b>DENOMPASS </b></div><table class=\"hapiPropertyTable\"><tbody><tr><td>Date of birth</td><td><span>01 February 2004</span></td></tr></tbody></table></div>"},"extension":[{"url":"http://hl7.org/fhir/us/core/StructureDefinition/us-core-race","extension":[{"url":"ombCategory","valueCoding":{"system":"urn:oid:2.16.840.1.113883.6.238","code":"1002-5","display":"American Indian or Alaska Native","userSelected":true}},{"url":"text","valueString":"American Indian or Alaska Native"}]},{"url":"http://hl7.org/fhir/us/core/StructureDefinition/us-core-ethnicity","extension":[{"url":"ombCategory","valueCoding":{"system":"urn:oid:2.16.840.1.113883.6.238","code":"2135-2","display":"Hispanic or Latino","userSelected":true}},{"url":"text","valueString":"Hispanic or Latino"}]}],"identifier":[{"type":{"coding":[{"system":"http://terminology.hl7.org/CodeSystem/v2-0203","code":"MR"}]},"system":"https://bonnie-fhir.healthit.gov/","value":"633b3f9e0968f80122503cc9"}],"active":true,"name":[{"use":"usual","family":"DENOMPass","given":["AssPrfDelRelvDtEQIPEnd"]}],"gender":"female","birthDate":"2004-02-01"},"request":{"method":"PUT","url":"Patient/1a5d2c56-6234-413b-8531-7d1da9848edd"}},{"fullUrl":"https://madie.cms.gov/Observation/77f5cf04-8e1f-427d-be2d-0958e5d5257e","resource":{"resourceType":"Observation","id":"77f5cf04-8e1f-427d-be2d-0958e5d5257e","meta":{"profile":["http://hl7.org/fhir/us/qicore/StructureDefinition/qicore-observation"]},"status":"final","category":[{"coding":[{"system":"http://terminology.hl7.org/CodeSystem/observation-category","code":"exam","display":"exam","userSelected":true}]}],"code":{"coding":[{"system":"http://loinc.org","code":"93857-1"}]},"subject":{"reference":"Patient/1a5d2c56-6234-413b-8531-7d1da9848edd"},"effectiveDateTime":"2024-02-05T08:15:00.000+00:00","valueDateTime":"2024-02-01T08:00:00+00:00"},"request":{"method":"PUT","url":"Observation/77f5cf04-8e1f-427d-be2d-0958e5d5257e"}},{"fullUrl":"https://madie.cms.gov/Observation/56886a09-9dcb-4e66-b269-fca9d1d7e3d5","resource":{"resourceType":"Observation","id":"56886a09-9dcb-4e66-b269-fca9d1d7e3d5","meta":{"profile":["http://hl7.org/fhir/us/qicore/StructureDefinition/qicore-observation"]},"status":"final","category":[{"coding":[{"system":"http://terminology.hl7.org/CodeSystem/observation-category","code":"exam","display":"exam","userSelected":true}]}],"code":{"coding":[{"system":"http://loinc.org","code":"11778-8"}]},"subject":{"reference":"Patient/1a5d2c56-6234-413b-8531-7d1da9848edd"},"effectiveDateTime":"2024-02-01T08:00:00.000+00:00","valueDateTime":"2024-02-01T08:00:00.000+00:00"},"request":{"method":"PUT","url":"Observation/56886a09-9dcb-4e66-b269-fca9d1d7e3d5"}},{"fullUrl":"https://madie.cms.gov/Encounter/47f82bc2-ec3f-41a4-a5a5-8437a9ad208a","resource":{"resourceType":"Encounter","id":"47f82bc2-ec3f-41a4-a5a5-8437a9ad208a","meta":{"profile":["http://hl7.org/fhir/us/qicore/StructureDefinition/qicore-encounter"]},"status":"finished","class":{"system":"http://terminology.hl7.org/CodeSystem/v3-ActCode","code":"IMP","display":"inpatient encounter"},"type":[{"coding":[{"system":"http://snomed.info/sct","code":"183452005"}]}],"subject":{"reference":"Patient/1a5d2c56-6234-413b-8531-7d1da9848edd"},"period":{"start":"2024-02-01T08:00:00.000Z","end":"2024-02-05T08:15:00.000Z"}},"request":{"method":"PUT","url":"Encounter/47f82bc2-ec3f-41a4-a5a5-8437a9ad208a"}},{"fullUrl":"https://madie.cms.gov/Procedure/6a58ba29-b04d-4cbf-aceb-0652a5e409e8","resource":{"resourceType":"Procedure","id":"6a58ba29-b04d-4cbf-aceb-0652a5e409e8","meta":{"profile":["http://hl7.org/fhir/us/qicore/StructureDefinition/qicore-procedure"]},"extension":[{"url":"http://hl7.org/fhir/us/qicore/StructureDefinition/qicore-recorded","valueDateTime":"2013-04-05T09:35:00-04:00"}],"status":"completed","code":{"coding":[{"system":"http://snomed.info/sct","code":"10745001"}]},"subject":{"reference":"Patient/1a5d2c56-6234-413b-8531-7d1da9848edd"},"performedPeriod":{"start":"2024-02-01T08:00:00.000Z","end":"2024-02-05T08:15:00.000Z"}},"request":{"method":"PUT","url":"Procedure/6a58ba29-b04d-4cbf-aceb-0652a5e409e8"}},{"fullUrl":"https://madie.cms.gov/Coverage/e1a04e5e-1ade-40e5-aba6-aa8950fb0bc1","resource":{"resourceType":"Coverage","id":"e1a04e5e-1ade-40e5-aba6-aa8950fb0bc1","meta":{"profile":["http://hl7.org/fhir/us/qicore/StructureDefinition/qicore-coverage"]},"status":"active","beneficiary":{"reference":"Patient/1a5d2c56-6234-413b-8531-7d1da9848edd"},"payor":[{"reference":"Organization/d296cf43-f7b0-45ca-9127-666a8b7282e5"}]},"request":{"method":"PUT","url":"Coverage/e1a04e5e-1ade-40e5-aba6-aa8950fb0bc1"}},{"fullUrl":"https://madie.cms.gov/Organization/d296cf43-f7b0-45ca-9127-666a8b7282e5","resource":{"resourceType":"Organization","id":"d296cf43-f7b0-45ca-9127-666a8b7282e5","meta":{"profile":["http://hl7.org/fhir/us/qicore/StructureDefinition/qicore-organization"]},"identifier":[{"use":"temp","system":"urn:oid:2.16.840.1.113883.4.4","value":"21-3259825"}],"active":true,"type":[{"coding":[{"system":"http://terminology.hl7.org/CodeSystem/organization-type","code":"pay","display":"Payer"}]}],"name":"Blue Cross Blue Shield of Texas","telecom":[{"system":"phone","value":"(+1) 972-766-6900"}],"address":[{"use":"billing","type":"postal","line":["P.O. Box 660044"],"city":"Dallas","state":"TX","postalCode":"75266-0044","country":"USA"}]},"request":{"method":"PUT","url":"Organization/d296cf43-f7b0-45ca-9127-666a8b7282e5"}},{"fullUrl":"https://madie.cms.gov/Practitioner/6a2129b9-1fbe-4422-86e9-de4371583feb","resource":{"resourceType":"Practitioner","id":"6a2129b9-1fbe-4422-86e9-de4371583feb","identifier":[{"system":"http://hl7.org/fhir/sid/us-npi","value":"123456"}],"name":[{"family":"Evil","prefix":["Dr"]}]},"request":{"method":"PUT","url":"Practitioner/6a2129b9-1fbe-4422-86e9-de4371583feb"}},{"fullUrl":"https://madie.cms.gov/MeasureReport/6e22b9b9-3e31-4160-9f28-cb3720566bf5","resource":{"resourceType":"MeasureReport","id":"6e22b9b9-3e31-4160-9f28-cb3720566bf5","meta":{"profile":["http://hl7.org/fhir/us/cqfmeasures/StructureDefinition/test-case-cqfm"]},"contained":[{"resourceType":"Parameters","id":"b94aed40-3da8-4d8e-a50c-a9576093474c-parameters","parameter":[{"name":"subject","valueString":"1a5d2c56-6234-413b-8531-7d1da9848edd"}]}],"extension":[{"url":"http://hl7.org/fhir/us/cqfmeasures/StructureDefinition/cqfm-inputParameters","valueReference":{"reference":"#b94aed40-3da8-4d8e-a50c-a9576093474c-parameters"}},{"url":"http://hl7.org/fhir/us/cqfmeasures/StructureDefinition/cqfm-testCaseDescription","valueMarkdown":"Relevant date/Time of delivery (based on assessment performed) is equal to the inpatient end\n\n"}],"modifierExtension":[{"url":"http://hl7.org/fhir/us/cqfmeasures/StructureDefinition/cqfm-isTestCase","valueBoolean":true}],"status":"complete","type":"individual","measure":"https://madie.cms.gov/Measure/SevereObstetricComplicationsFHIR","period":{"start":"2024-01-01","end":"2024-12-31"},"group":[{"population":[{"code":{"coding":[{"system":"http://terminology.hl7.org/CodeSystem/measure-population","code":"initial-population","display":"Initial Population"}]},"count":1},{"code":{"coding":[{"system":"http://terminology.hl7.org/CodeSystem/measure-population","code":"denominator","display":"Denominator"}]},"count":1},{"code":{"coding":[{"system":"http://terminology.hl7.org/CodeSystem/measure-population","code":"denominator-exclusion","display":"Denominator Exclusion"}]},"count":0},{"code":{"coding":[{"system":"http://terminology.hl7.org/CodeSystem/measure-population","code":"numerator","display":"Numerator"}]},"count":0}]}],"evaluatedResource":[{"reference":"Patient/1a5d2c56-6234-413b-8531-7d1da9848edd"},{"reference":"Observation/77f5cf04-8e1f-427d-be2d-0958e5d5257e"},{"reference":"Observation/56886a09-9dcb-4e66-b269-fca9d1d7e3d5"},{"reference":"Encounter/47f82bc2-ec3f-41a4-a5a5-8437a9ad208a"},{"reference":"Procedure/6a58ba29-b04d-4cbf-aceb-0652a5e409e8"},{"reference":"Coverage/e1a04e5e-1ade-40e5-aba6-aa8950fb0bc1"},{"reference":"Organization/d296cf43-f7b0-45ca-9127-666a8b7282e5"},{"reference":"Practitioner/6a2129b9-1fbe-4422-86e9-de4371583feb"}]},"request":{"method":"PUT","url":"MeasureReport/6e22b9b9-3e31-4160-9f28-cb3720566bf5"}}]}