{"resourceType":"Bundle","id":"tests-0aa074aa-410f-4594-baca-7076259b8a49-bundle","type":"transaction","entry":[{"fullUrl":"https://madie.cms.gov/Patient/0aa074aa-410f-4594-baca-7076259b8a49","resource":{"resourceType":"Patient","id":"0aa074aa-410f-4594-baca-7076259b8a49","meta":{"profile":["http://hl7.org/fhir/us/qicore/StructureDefinition/qicore-patient"]},"text":{"status":"generated","div":"<div xmlns=\"http://www.w3.org/1999/xhtml\"><div class=\"hapiHeaderText\">Age8OnDayOfEncStart <b>IPPASS </b></div><table class=\"hapiPropertyTable\"><tbody><tr><td>Date of birth</td><td><span>01 February 2004</span></td></tr></tbody></table></div>"},"extension":[{"url":"http://hl7.org/fhir/us/core/StructureDefinition/us-core-race","extension":[{"url":"ombCategory","valueCoding":{"system":"urn:oid:2.16.840.1.113883.6.238","code":"1002-5","display":"American Indian or Alaska Native","userSelected":true}},{"url":"text","valueString":"American Indian or Alaska Native"}]},{"url":"http://hl7.org/fhir/us/core/StructureDefinition/us-core-ethnicity","extension":[{"url":"ombCategory","valueCoding":{"system":"urn:oid:2.16.840.1.113883.6.238","code":"2135-2","display":"Hispanic or Latino","userSelected":true}},{"url":"text","valueString":"Hispanic or Latino"}]}],"identifier":[{"type":{"coding":[{"system":"http://terminology.hl7.org/CodeSystem/v2-0203","code":"MR"}]},"system":"https://bonnie-fhir.healthit.gov/","value":"633b3f9e0968f80122503cbb"}],"active":true,"name":[{"use":"usual","family":"IPPass","given":["Age8OnDayOfEncStart"]}],"gender":"female","birthDate":"2016-02-01"},"request":{"method":"PUT","url":"Patient/0aa074aa-410f-4594-baca-7076259b8a49"}},{"fullUrl":"https://madie.cms.gov/Encounter/a0ca8f4b-5d24-4bd8-821b-70a02079aade","resource":{"resourceType":"Encounter","id":"a0ca8f4b-5d24-4bd8-821b-70a02079aade","meta":{"profile":["http://hl7.org/fhir/us/qicore/StructureDefinition/qicore-encounter"]},"status":"finished","class":{"system":"http://terminology.hl7.org/CodeSystem/v3-ActCode","code":"IMP","display":"inpatient encounter"},"type":[{"coding":[{"system":"http://snomed.info/sct","code":"183452005"}]}],"subject":{"reference":"Patient/0aa074aa-410f-4594-baca-7076259b8a49"},"period":{"start":"2024-02-01T08:00:00.000Z","end":"2024-02-05T08:15:00.000Z"},"diagnosis":[{"condition":{"reference":"Condition/Condition-2"},"use":{"coding":[{"system":"http://snomed.info/sct","code":"169826009","display":"Delivery of Singleton"}]}}]},"request":{"method":"PUT","url":"Encounter/a0ca8f4b-5d24-4bd8-821b-70a02079aade"}},{"fullUrl":"https://madie.cms.gov/Procedure/94af98ef-4a67-4baf-91eb-5fcad81836be","resource":{"resourceType":"Procedure","id":"94af98ef-4a67-4baf-91eb-5fcad81836be","meta":{"profile":["http://hl7.org/fhir/us/qicore/StructureDefinition/qicore-procedure"]},"extension":[{"url":"http://hl7.org/fhir/us/qicore/StructureDefinition/qicore-recorded","valueDateTime":"2013-04-05T09:35:00-04:00"}],"status":"completed","code":{"coding":[{"system":"http://snomed.info/sct","version":"2022-09","code":"10745001","display":"Delivery of transverse presentation (procedure)","userSelected":true}]},"subject":{"reference":"Patient/0aa074aa-410f-4594-baca-7076259b8a49"},"performedPeriod":{"start":"2024-02-01T08:00:00.000Z","end":"2024-02-05T08:15:00.000Z"}},"request":{"method":"PUT","url":"Procedure/94af98ef-4a67-4baf-91eb-5fcad81836be"}},{"fullUrl":"https://madie.cms.gov/Coverage/5e961fce-8dfb-45f9-968e-c0c0b6702001","resource":{"resourceType":"Coverage","id":"5e961fce-8dfb-45f9-968e-c0c0b6702001","meta":{"profile":["http://hl7.org/fhir/us/qicore/StructureDefinition/qicore-coverage"]},"status":"active","beneficiary":{"reference":"Patient/0aa074aa-410f-4594-baca-7076259b8a49"},"payor":[{"reference":"Organization/88935903-34ef-4342-8e62-9c30f722ab2a"}]},"request":{"method":"PUT","url":"Coverage/5e961fce-8dfb-45f9-968e-c0c0b6702001"}},{"fullUrl":"https://madie.cms.gov/Organization/88935903-34ef-4342-8e62-9c30f722ab2a","resource":{"resourceType":"Organization","id":"88935903-34ef-4342-8e62-9c30f722ab2a","meta":{"profile":["http://hl7.org/fhir/us/qicore/StructureDefinition/qicore-organization"]},"identifier":[{"use":"temp","system":"urn:oid:2.16.840.1.113883.4.4","value":"21-3259825"}],"active":true,"type":[{"coding":[{"system":"http://terminology.hl7.org/CodeSystem/organization-type","code":"pay","display":"Payer"}]}],"name":"Blue Cross Blue Shield of Texas","telecom":[{"system":"phone","value":"(+1) 972-766-6900"}],"address":[{"use":"billing","type":"postal","line":["P.O. Box 660044"],"city":"Dallas","state":"TX","postalCode":"75266-0044","country":"USA"}]},"request":{"method":"PUT","url":"Organization/88935903-34ef-4342-8e62-9c30f722ab2a"}},{"fullUrl":"https://madie.cms.gov/Practitioner/90a67e32-af2e-4871-8b2d-2daf71d12674","resource":{"resourceType":"Practitioner","id":"90a67e32-af2e-4871-8b2d-2daf71d12674","identifier":[{"system":"http://hl7.org/fhir/sid/us-npi","value":"123456"}],"name":[{"family":"Evil","prefix":["Dr"]}]},"request":{"method":"PUT","url":"Practitioner/90a67e32-af2e-4871-8b2d-2daf71d12674"}},{"fullUrl":"https://madie.cms.gov/MeasureReport/143eccb6-bf7a-4356-b733-fea700e1c2e6","resource":{"resourceType":"MeasureReport","id":"143eccb6-bf7a-4356-b733-fea700e1c2e6","meta":{"profile":["http://hl7.org/fhir/us/cqfmeasures/StructureDefinition/test-case-cqfm"]},"contained":[{"resourceType":"Parameters","id":"0c01b2f9-8a22-43a2-a6bf-27f9bf83552d-parameters","parameter":[{"name":"subject","valueString":"0aa074aa-410f-4594-baca-7076259b8a49"}]}],"extension":[{"url":"http://hl7.org/fhir/us/cqfmeasures/StructureDefinition/cqfm-inputParameters","valueReference":{"reference":"#0c01b2f9-8a22-43a2-a6bf-27f9bf83552d-parameters"}},{"url":"http://hl7.org/fhir/us/cqfmeasures/StructureDefinition/cqfm-testCaseDescription","valueMarkdown":"Patient is 8 years of age on day of encounter start.\n"}],"modifierExtension":[{"url":"http://hl7.org/fhir/us/cqfmeasures/StructureDefinition/cqfm-isTestCase","valueBoolean":true}],"status":"complete","type":"individual","measure":"https://madie.cms.gov/Measure/SevereObstetricComplicationsFHIR","period":{"start":"2024-01-01","end":"2024-12-31"},"group":[{"population":[{"code":{"coding":[{"system":"http://terminology.hl7.org/CodeSystem/measure-population","code":"initial-population","display":"Initial Population"}]},"count":1},{"code":{"coding":[{"system":"http://terminology.hl7.org/CodeSystem/measure-population","code":"denominator","display":"Denominator"}]},"count":0},{"code":{"coding":[{"system":"http://terminology.hl7.org/CodeSystem/measure-population","code":"denominator-exclusion","display":"Denominator Exclusion"}]},"count":0},{"code":{"coding":[{"system":"http://terminology.hl7.org/CodeSystem/measure-population","code":"numerator","display":"Numerator"}]},"count":0}]}],"evaluatedResource":[{"reference":"Patient/0aa074aa-410f-4594-baca-7076259b8a49"},{"reference":"Encounter/a0ca8f4b-5d24-4bd8-821b-70a02079aade"},{"reference":"Procedure/94af98ef-4a67-4baf-91eb-5fcad81836be"},{"reference":"Coverage/5e961fce-8dfb-45f9-968e-c0c0b6702001"},{"reference":"Organization/88935903-34ef-4342-8e62-9c30f722ab2a"},{"reference":"Practitioner/90a67e32-af2e-4871-8b2d-2daf71d12674"}]},"request":{"method":"PUT","url":"MeasureReport/143eccb6-bf7a-4356-b733-fea700e1c2e6"}}]}