{"resourceType":"Bundle","id":"tests-ae04f317-ecda-4940-96f9-063ef12391e7-bundle","type":"transaction","entry":[{"fullUrl":"https://madie.cms.gov/Patient/ae04f317-ecda-4940-96f9-063ef12391e7","resource":{"resourceType":"Patient","id":"ae04f317-ecda-4940-96f9-063ef12391e7","meta":{"profile":["http://hl7.org/fhir/us/qicore/StructureDefinition/qicore-patient"]},"text":{"status":"generated","div":"<div xmlns=\"http://www.w3.org/1999/xhtml\"><div class=\"hapiHeaderText\">AssPrfDELRelvDt_EQIPStart <b>DENOMPASS </b></div><table class=\"hapiPropertyTable\"><tbody><tr><td>Date of birth</td><td><span>01 February 2004</span></td></tr></tbody></table></div>"},"extension":[{"url":"http://hl7.org/fhir/us/core/StructureDefinition/us-core-race","extension":[{"url":"ombCategory","valueCoding":{"system":"urn:oid:2.16.840.1.113883.6.238","code":"1002-5","display":"American Indian or Alaska Native","userSelected":true}},{"url":"text","valueString":"American Indian or Alaska Native"}]},{"url":"http://hl7.org/fhir/us/core/StructureDefinition/us-core-ethnicity","extension":[{"url":"ombCategory","valueCoding":{"system":"urn:oid:2.16.840.1.113883.6.238","code":"2135-2","display":"Hispanic or Latino","userSelected":true}},{"url":"text","valueString":"Hispanic or Latino"}]}],"identifier":[{"type":{"coding":[{"system":"http://terminology.hl7.org/CodeSystem/v2-0203","code":"MR"}]},"system":"https://bonnie-fhir.healthit.gov/","value":"6356d5f554e383debade75a6"}],"active":true,"name":[{"use":"usual","family":"DENEXCFail","given":["CovidDxOnly"]}],"gender":"female","birthDate":"2004-02-01"},"request":{"method":"PUT","url":"Patient/ae04f317-ecda-4940-96f9-063ef12391e7"}},{"fullUrl":"https://madie.cms.gov/Observation/dc360144-7780-4aa4-8306-dbdcf39a073e","resource":{"resourceType":"Observation","id":"dc360144-7780-4aa4-8306-dbdcf39a073e","meta":{"profile":["http://hl7.org/fhir/us/qicore/StructureDefinition/qicore-observation"]},"status":"final","category":[{"coding":[{"system":"http://terminology.hl7.org/CodeSystem/observation-category","code":"exam","display":"exam","userSelected":true}]}],"code":{"coding":[{"system":"http://loinc.org","code":"93857-1"}]},"subject":{"reference":"Patient/ae04f317-ecda-4940-96f9-063ef12391e7"},"effectiveDateTime":"2024-02-01T08:00:00.000+00:00","valueDateTime":"2024-02-01T08:00:00.000+00:00"},"request":{"method":"PUT","url":"Observation/dc360144-7780-4aa4-8306-dbdcf39a073e"}},{"fullUrl":"https://madie.cms.gov/Observation/0446ed17-b848-4e4b-9324-5b0bc0be3075","resource":{"resourceType":"Observation","id":"0446ed17-b848-4e4b-9324-5b0bc0be3075","meta":{"profile":["http://hl7.org/fhir/us/qicore/StructureDefinition/qicore-observation"]},"status":"final","category":[{"coding":[{"system":"http://terminology.hl7.org/CodeSystem/observation-category","code":"exam","display":"exam","userSelected":true}]}],"code":{"coding":[{"system":"http://loinc.org","code":"11778-8"}]},"subject":{"reference":"Patient/ae04f317-ecda-4940-96f9-063ef12391e7"},"effectiveDateTime":"2024-02-01T08:00:00.000+00:00","valueDateTime":"2024-02-01T08:00:00.000+00:00"},"request":{"method":"PUT","url":"Observation/0446ed17-b848-4e4b-9324-5b0bc0be3075"}},{"fullUrl":"https://madie.cms.gov/Encounter/e86160c9-c7dc-4231-b2d6-e0becf6e111a","resource":{"resourceType":"Encounter","id":"e86160c9-c7dc-4231-b2d6-e0becf6e111a","meta":{"profile":["http://hl7.org/fhir/us/qicore/StructureDefinition/qicore-encounter"]},"status":"finished","class":{"system":"http://terminology.hl7.org/CodeSystem/v3-ActCode","code":"IMP","display":"inpatient encounter"},"type":[{"coding":[{"system":"http://snomed.info/sct","code":"183452005"}]}],"subject":{"reference":"Patient/ae04f317-ecda-4940-96f9-063ef12391e7"},"period":{"start":"2024-02-01T08:00:00.000Z","end":"2024-02-05T08:15:00.000Z"},"diagnosis":[{"condition":{"reference":"Condition/3c0f466b-4ce9-49f5-80e4-e9b4e383cdfa"}}]},"request":{"method":"PUT","url":"Encounter/e86160c9-c7dc-4231-b2d6-e0becf6e111a"}},{"fullUrl":"https://madie.cms.gov/Procedure/26f13bb3-d57a-48c5-9a9a-7afb217c3761","resource":{"resourceType":"Procedure","id":"26f13bb3-d57a-48c5-9a9a-7afb217c3761","meta":{"profile":["http://hl7.org/fhir/us/qicore/StructureDefinition/qicore-procedure"]},"extension":[{"url":"http://hl7.org/fhir/us/qicore/StructureDefinition/qicore-recorded","valueDateTime":"2013-04-05T09:35:00-04:00"}],"status":"completed","code":{"coding":[{"system":"http://snomed.info/sct","code":"10745001"}]},"subject":{"reference":"Patient/ae04f317-ecda-4940-96f9-063ef12391e7"},"performedPeriod":{"start":"2024-02-01T08:00:00.000Z","end":"2024-02-05T08:15:00.000Z"}},"request":{"method":"PUT","url":"Procedure/26f13bb3-d57a-48c5-9a9a-7afb217c3761"}},{"fullUrl":"https://madie.cms.gov/Condition/3c0f466b-4ce9-49f5-80e4-e9b4e383cdfa","resource":{"resourceType":"Condition","id":"3c0f466b-4ce9-49f5-80e4-e9b4e383cdfa","meta":{"profile":["http://hl7.org/fhir/us/qicore/StructureDefinition/qicore-condition"]},"category":[{"coding":[{"system":"http://terminology.hl7.org/CodeSystem/condition-category","code":"encounter-diagnosis","display":"Encounter Diagnosis"}]}],"code":{"coding":[{"system":"http://snomed.info/sct","version":"2022-09","code":"840539006","display":"Disease caused by severe acute respiratory syndrome coronavirus 2 (disorder)","userSelected":true}]},"subject":{"reference":"Patient/ae04f317-ecda-4940-96f9-063ef12391e7"}},"request":{"method":"PUT","url":"Condition/3c0f466b-4ce9-49f5-80e4-e9b4e383cdfa"}},{"fullUrl":"https://madie.cms.gov/Coverage/2e4cdcea-4466-41fd-a80f-2469bf458727","resource":{"resourceType":"Coverage","id":"2e4cdcea-4466-41fd-a80f-2469bf458727","meta":{"profile":["http://hl7.org/fhir/us/qicore/StructureDefinition/qicore-coverage"]},"status":"active","beneficiary":{"reference":"Patient/ae04f317-ecda-4940-96f9-063ef12391e7"},"payor":[{"reference":"Organization/c26377ce-7f61-4a15-b5e8-6d3edf10a466"}]},"request":{"method":"PUT","url":"Coverage/2e4cdcea-4466-41fd-a80f-2469bf458727"}},{"fullUrl":"https://madie.cms.gov/Organization/c26377ce-7f61-4a15-b5e8-6d3edf10a466","resource":{"resourceType":"Organization","id":"c26377ce-7f61-4a15-b5e8-6d3edf10a466","meta":{"profile":["http://hl7.org/fhir/us/qicore/StructureDefinition/qicore-organization"]},"identifier":[{"use":"temp","system":"urn:oid:2.16.840.1.113883.4.4","value":"21-3259825"}],"active":true,"type":[{"coding":[{"system":"http://terminology.hl7.org/CodeSystem/organization-type","code":"pay","display":"Payer"}]}],"name":"Blue Cross Blue Shield of Texas","telecom":[{"system":"phone","value":"(+1) 972-766-6900"}],"address":[{"use":"billing","type":"postal","line":["P.O. Box 660044"],"city":"Dallas","state":"TX","postalCode":"75266-0044","country":"USA"}]},"request":{"method":"PUT","url":"Organization/c26377ce-7f61-4a15-b5e8-6d3edf10a466"}},{"fullUrl":"https://madie.cms.gov/Practitioner/a60dead9-a072-431c-b7de-ef4b99f5068a","resource":{"resourceType":"Practitioner","id":"a60dead9-a072-431c-b7de-ef4b99f5068a","identifier":[{"system":"http://hl7.org/fhir/sid/us-npi","value":"123456"}],"name":[{"family":"Evil","prefix":["Dr"]}]},"request":{"method":"PUT","url":"Practitioner/a60dead9-a072-431c-b7de-ef4b99f5068a"}},{"fullUrl":"https://madie.cms.gov/MeasureReport/67bf1b71-7a60-44f7-8802-18b30a6a4db7","resource":{"resourceType":"MeasureReport","id":"67bf1b71-7a60-44f7-8802-18b30a6a4db7","meta":{"profile":["http://hl7.org/fhir/us/cqfmeasures/StructureDefinition/test-case-cqfm"]},"contained":[{"resourceType":"Parameters","id":"c8720c09-4507-4b59-8d94-0247c100907f-parameters","parameter":[{"name":"subject","valueString":"ae04f317-ecda-4940-96f9-063ef12391e7"}]}],"extension":[{"url":"http://hl7.org/fhir/us/cqfmeasures/StructureDefinition/cqfm-inputParameters","valueReference":{"reference":"#c8720c09-4507-4b59-8d94-0247c100907f-parameters"}},{"url":"http://hl7.org/fhir/us/cqfmeasures/StructureDefinition/cqfm-testCaseDescription","valueMarkdown":"Patient with confirmed COVID diagnosis only.\n"}],"modifierExtension":[{"url":"http://hl7.org/fhir/us/cqfmeasures/StructureDefinition/cqfm-isTestCase","valueBoolean":true}],"status":"complete","type":"individual","measure":"https://madie.cms.gov/Measure/SevereObstetricComplicationsFHIR","period":{"start":"2024-01-01","end":"2024-12-31"},"group":[{"population":[{"code":{"coding":[{"system":"http://terminology.hl7.org/CodeSystem/measure-population","code":"initial-population","display":"Initial Population"}]},"count":1},{"code":{"coding":[{"system":"http://terminology.hl7.org/CodeSystem/measure-population","code":"denominator","display":"Denominator"}]},"count":1},{"code":{"coding":[{"system":"http://terminology.hl7.org/CodeSystem/measure-population","code":"denominator-exclusion","display":"Denominator Exclusion"}]},"count":0},{"code":{"coding":[{"system":"http://terminology.hl7.org/CodeSystem/measure-population","code":"numerator","display":"Numerator"}]},"count":0}]}],"evaluatedResource":[{"reference":"Patient/ae04f317-ecda-4940-96f9-063ef12391e7"},{"reference":"Observation/dc360144-7780-4aa4-8306-dbdcf39a073e"},{"reference":"Observation/0446ed17-b848-4e4b-9324-5b0bc0be3075"},{"reference":"Encounter/e86160c9-c7dc-4231-b2d6-e0becf6e111a"},{"reference":"Procedure/26f13bb3-d57a-48c5-9a9a-7afb217c3761"},{"reference":"Condition/3c0f466b-4ce9-49f5-80e4-e9b4e383cdfa"},{"reference":"Coverage/2e4cdcea-4466-41fd-a80f-2469bf458727"},{"reference":"Organization/c26377ce-7f61-4a15-b5e8-6d3edf10a466"},{"reference":"Practitioner/a60dead9-a072-431c-b7de-ef4b99f5068a"}]},"request":{"method":"PUT","url":"MeasureReport/67bf1b71-7a60-44f7-8802-18b30a6a4db7"}}]}