{"resourceType":"Bundle","id":"tests-285027ef-63bd-481e-8a5f-7c1f4ea83ce7-bundle","type":"transaction","entry":[{"fullUrl":"https://madie.cms.gov/Patient/285027ef-63bd-481e-8a5f-7c1f4ea83ce7","resource":{"resourceType":"Patient","id":"285027ef-63bd-481e-8a5f-7c1f4ea83ce7","meta":{"profile":["http://hl7.org/fhir/us/qicore/StructureDefinition/qicore-patient"]},"text":{"status":"generated","div":"<div xmlns=\"http://www.w3.org/1999/xhtml\"><div class=\"hapiHeaderText\">CalcAndEGA19WksDxCode20Weeks  <b>DENOMFAIL </b></div><table class=\"hapiPropertyTable\"><tbody><tr><td>Date of birth</td><td><span>01 February 2004</span></td></tr></tbody></table></div>"},"extension":[{"url":"http://hl7.org/fhir/us/core/StructureDefinition/us-core-race","extension":[{"url":"ombCategory","valueCoding":{"system":"urn:oid:2.16.840.1.113883.6.238","code":"1002-5","display":"American Indian or Alaska Native","userSelected":true}},{"url":"text","valueString":"American Indian or Alaska Native"}]},{"url":"http://hl7.org/fhir/us/core/StructureDefinition/us-core-ethnicity","extension":[{"url":"ombCategory","valueCoding":{"system":"urn:oid:2.16.840.1.113883.6.238","code":"2135-2","display":"Hispanic or Latino","userSelected":true}},{"url":"text","valueString":"Hispanic or Latino"}]}],"identifier":[{"type":{"coding":[{"system":"http://terminology.hl7.org/CodeSystem/v2-0203","code":"MR"}]},"system":"https://bonnie-fhir.healthit.gov/","value":"6356d03854e383debade759e"}],"active":true,"name":[{"use":"usual","family":"DENOMFail","given":["CalcAndEGA19WksDxCode20Weeks "]}],"gender":"female","birthDate":"2004-02-01"},"request":{"method":"PUT","url":"Patient/285027ef-63bd-481e-8a5f-7c1f4ea83ce7"}},{"fullUrl":"https://madie.cms.gov/Observation/dec236c2-3e8b-43c9-8e20-40a148d30e23","resource":{"resourceType":"Observation","id":"dec236c2-3e8b-43c9-8e20-40a148d30e23","meta":{"profile":["http://hl7.org/fhir/us/qicore/StructureDefinition/qicore-observation"]},"status":"final","category":[{"coding":[{"system":"http://terminology.hl7.org/CodeSystem/observation-category","code":"exam","display":"exam","userSelected":true}]}],"code":{"coding":[{"system":"http://loinc.org","code":"11884-4"}]},"subject":{"reference":"Patient/285027ef-63bd-481e-8a5f-7c1f4ea83ce7"},"effectiveDateTime":"2024-01-15T08:00:00.000+00:00","valueQuantity":{"value":19,"unit":"wk"}},"request":{"method":"PUT","url":"Observation/dec236c2-3e8b-43c9-8e20-40a148d30e23"}},{"fullUrl":"https://madie.cms.gov/Observation/ef13b7c2-a5f6-4dc7-8ca5-0e4dfebdee43","resource":{"resourceType":"Observation","id":"ef13b7c2-a5f6-4dc7-8ca5-0e4dfebdee43","meta":{"profile":["http://hl7.org/fhir/us/qicore/StructureDefinition/qicore-observation"]},"status":"final","category":[{"coding":[{"system":"http://terminology.hl7.org/CodeSystem/observation-category","code":"exam","display":"exam","userSelected":true}]}],"code":{"coding":[{"system":"http://loinc.org","code":"93857-1"}]},"subject":{"reference":"Patient/285027ef-63bd-481e-8a5f-7c1f4ea83ce7"},"effectiveDateTime":"2024-01-15T08:00:00.000+00:00","valueDateTime":"2024-01-15T08:00:00.000+00:00"},"request":{"method":"PUT","url":"Observation/ef13b7c2-a5f6-4dc7-8ca5-0e4dfebdee43"}},{"fullUrl":"https://madie.cms.gov/Encounter/cc3304c6-1bf8-4bcf-9c6c-bc0c5b381e18","resource":{"resourceType":"Encounter","id":"cc3304c6-1bf8-4bcf-9c6c-bc0c5b381e18","meta":{"profile":["http://hl7.org/fhir/us/qicore/StructureDefinition/qicore-encounter"]},"status":"finished","class":{"system":"http://terminology.hl7.org/CodeSystem/v3-ActCode","code":"IMP","display":"inpatient encounter"},"type":[{"coding":[{"system":"http://snomed.info/sct","code":"183452005"}]}],"subject":{"reference":"Patient/285027ef-63bd-481e-8a5f-7c1f4ea83ce7"},"period":{"start":"2024-01-01T08:00:00.000Z","end":"2024-02-05T08:15:00.000Z"},"diagnosis":[{"condition":{"reference":"Condition/d34b9edf-7874-44b7-9b40-abd3e73230c3"}}]},"request":{"method":"PUT","url":"Encounter/cc3304c6-1bf8-4bcf-9c6c-bc0c5b381e18"}},{"fullUrl":"https://madie.cms.gov/Observation/72ee8254-5fb7-49fb-8c14-f8e54e52a5d1","resource":{"resourceType":"Observation","id":"72ee8254-5fb7-49fb-8c14-f8e54e52a5d1","meta":{"profile":["http://hl7.org/fhir/us/qicore/StructureDefinition/qicore-observation"]},"status":"final","category":[{"coding":[{"system":"http://terminology.hl7.org/CodeSystem/observation-category","code":"exam","display":"exam","userSelected":true}]}],"code":{"coding":[{"system":"http://loinc.org","code":"11778-8"}]},"subject":{"reference":"Patient/285027ef-63bd-481e-8a5f-7c1f4ea83ce7"},"effectiveDateTime":"2024-01-15T08:00:00.000+00:00","valueDateTime":"2024-06-05T08:00:00.000+00:00"},"request":{"method":"PUT","url":"Observation/72ee8254-5fb7-49fb-8c14-f8e54e52a5d1"}},{"fullUrl":"https://madie.cms.gov/Procedure/767d7477-2763-472b-8b6c-7372ce516bdb","resource":{"resourceType":"Procedure","id":"767d7477-2763-472b-8b6c-7372ce516bdb","meta":{"profile":["http://hl7.org/fhir/us/qicore/StructureDefinition/qicore-procedure"]},"extension":[{"url":"http://hl7.org/fhir/us/qicore/StructureDefinition/qicore-recorded","valueDateTime":"2013-04-05T09:35:00-04:00"}],"status":"completed","code":{"coding":[{"system":"http://snomed.info/sct","code":"10745001"}]},"subject":{"reference":"Patient/285027ef-63bd-481e-8a5f-7c1f4ea83ce7"},"performedPeriod":{"start":"2024-01-01T08:00:00.000Z","end":"2024-01-01T08:15:00.000Z"}},"request":{"method":"PUT","url":"Procedure/767d7477-2763-472b-8b6c-7372ce516bdb"}},{"fullUrl":"https://madie.cms.gov/Condition/d34b9edf-7874-44b7-9b40-abd3e73230c3","resource":{"resourceType":"Condition","id":"d34b9edf-7874-44b7-9b40-abd3e73230c3","meta":{"profile":["http://hl7.org/fhir/us/qicore/StructureDefinition/qicore-condition"]},"category":[{"coding":[{"system":"http://terminology.hl7.org/CodeSystem/condition-category","code":"encounter-diagnosis","display":"Encounter Diagnosis"}]}],"code":{"coding":[{"system":"http://snomed.info/sct","version":"2023-03","code":"23464008","display":"Gestation period, 20 weeks","userSelected":true}]},"subject":{"reference":"Patient/285027ef-63bd-481e-8a5f-7c1f4ea83ce7"},"recordedDate":"2024-10-24T08:00:00.000+00:00"},"request":{"method":"PUT","url":"Condition/d34b9edf-7874-44b7-9b40-abd3e73230c3"}},{"fullUrl":"https://madie.cms.gov/Coverage/0ffa38dc-8b89-4283-8cde-b41177d7e195","resource":{"resourceType":"Coverage","id":"0ffa38dc-8b89-4283-8cde-b41177d7e195","meta":{"profile":["http://hl7.org/fhir/us/qicore/StructureDefinition/qicore-coverage"]},"status":"active","beneficiary":{"reference":"Patient/285027ef-63bd-481e-8a5f-7c1f4ea83ce7"},"payor":[{"reference":"Organization/863a3d1c-d53c-4e5b-8e19-b87539cf02de"}]},"request":{"method":"PUT","url":"Coverage/0ffa38dc-8b89-4283-8cde-b41177d7e195"}},{"fullUrl":"https://madie.cms.gov/Organization/863a3d1c-d53c-4e5b-8e19-b87539cf02de","resource":{"resourceType":"Organization","id":"863a3d1c-d53c-4e5b-8e19-b87539cf02de","meta":{"profile":["http://hl7.org/fhir/us/qicore/StructureDefinition/qicore-organization"]},"identifier":[{"use":"temp","system":"urn:oid:2.16.840.1.113883.4.4","value":"21-3259825"}],"active":true,"type":[{"coding":[{"system":"http://terminology.hl7.org/CodeSystem/organization-type","code":"pay","display":"Payer"}]}],"name":"Blue Cross Blue Shield of Texas","telecom":[{"system":"phone","value":"(+1) 972-766-6900"}],"address":[{"use":"billing","type":"postal","line":["P.O. Box 660044"],"city":"Dallas","state":"TX","postalCode":"75266-0044","country":"USA"}]},"request":{"method":"PUT","url":"Organization/863a3d1c-d53c-4e5b-8e19-b87539cf02de"}},{"fullUrl":"https://madie.cms.gov/Practitioner/3c15fffd-8e6c-4cb7-86db-5a76167f814d","resource":{"resourceType":"Practitioner","id":"3c15fffd-8e6c-4cb7-86db-5a76167f814d","identifier":[{"system":"http://hl7.org/fhir/sid/us-npi","value":"123456"}],"name":[{"family":"Evil","prefix":["Dr"]}]},"request":{"method":"PUT","url":"Practitioner/3c15fffd-8e6c-4cb7-86db-5a76167f814d"}},{"fullUrl":"https://madie.cms.gov/MeasureReport/7fbd9e68-bdb9-40f7-9680-adf0e923694e","resource":{"resourceType":"MeasureReport","id":"7fbd9e68-bdb9-40f7-9680-adf0e923694e","meta":{"profile":["http://hl7.org/fhir/us/cqfmeasures/StructureDefinition/test-case-cqfm"]},"contained":[{"resourceType":"Parameters","id":"7f4bac89-42a1-4771-8deb-55ef3ae361f9-parameters","parameter":[{"name":"subject","valueString":"285027ef-63bd-481e-8a5f-7c1f4ea83ce7"}]}],"extension":[{"url":"http://hl7.org/fhir/us/cqfmeasures/StructureDefinition/cqfm-inputParameters","valueReference":{"reference":"#7f4bac89-42a1-4771-8deb-55ef3ae361f9-parameters"}},{"url":"http://hl7.org/fhir/us/cqfmeasures/StructureDefinition/cqfm-testCaseDescription","valueMarkdown":"Calculated and Estimated GA  = 19 weeks.  Diagnosis code = 20 weeks.  Denom fails based on hierarchy.\n"}],"modifierExtension":[{"url":"http://hl7.org/fhir/us/cqfmeasures/StructureDefinition/cqfm-isTestCase","valueBoolean":true}],"status":"complete","type":"individual","measure":"https://madie.cms.gov/Measure/SevereObstetricComplicationsFHIR","period":{"start":"2024-01-01","end":"2024-12-31"},"group":[{"population":[{"code":{"coding":[{"system":"http://terminology.hl7.org/CodeSystem/measure-population","code":"initial-population","display":"Initial Population"}]},"count":1},{"code":{"coding":[{"system":"http://terminology.hl7.org/CodeSystem/measure-population","code":"denominator","display":"Denominator"}]},"count":0},{"code":{"coding":[{"system":"http://terminology.hl7.org/CodeSystem/measure-population","code":"denominator-exclusion","display":"Denominator Exclusion"}]},"count":0},{"code":{"coding":[{"system":"http://terminology.hl7.org/CodeSystem/measure-population","code":"numerator","display":"Numerator"}]},"count":0}]}],"evaluatedResource":[{"reference":"Patient/285027ef-63bd-481e-8a5f-7c1f4ea83ce7"},{"reference":"Observation/dec236c2-3e8b-43c9-8e20-40a148d30e23"},{"reference":"Observation/ef13b7c2-a5f6-4dc7-8ca5-0e4dfebdee43"},{"reference":"Encounter/cc3304c6-1bf8-4bcf-9c6c-bc0c5b381e18"},{"reference":"Observation/72ee8254-5fb7-49fb-8c14-f8e54e52a5d1"},{"reference":"Procedure/767d7477-2763-472b-8b6c-7372ce516bdb"},{"reference":"Condition/d34b9edf-7874-44b7-9b40-abd3e73230c3"},{"reference":"Coverage/0ffa38dc-8b89-4283-8cde-b41177d7e195"},{"reference":"Organization/863a3d1c-d53c-4e5b-8e19-b87539cf02de"},{"reference":"Practitioner/3c15fffd-8e6c-4cb7-86db-5a76167f814d"}]},"request":{"method":"PUT","url":"MeasureReport/7fbd9e68-bdb9-40f7-9680-adf0e923694e"}}]}