{"resourceType":"Bundle","id":"tests-41a52455-bf64-4518-be9d-d6770572faa6-bundle","type":"transaction","entry":[{"fullUrl":"https://madie.cms.gov/Patient/41a52455-bf64-4518-be9d-d6770572faa6","resource":{"resourceType":"Patient","id":"41a52455-bf64-4518-be9d-d6770572faa6","meta":{"profile":["http://hl7.org/fhir/us/qicore/StructureDefinition/qicore-patient"]},"text":{"status":"generated","div":"<div xmlns=\"http://www.w3.org/1999/xhtml\"><div class=\"hapiHeaderText\">DelProcRelDtTmEQIPStart <b>IPPASS </b></div><table class=\"hapiPropertyTable\"><tbody><tr><td>Date of birth</td><td><span>31 January 2004</span></td></tr></tbody></table></div>"},"extension":[{"url":"http://hl7.org/fhir/us/core/StructureDefinition/us-core-race","extension":[{"url":"ombCategory","valueCoding":{"system":"urn:oid:2.16.840.1.113883.6.238","code":"1002-5","display":"American Indian or Alaska Native","userSelected":true}},{"url":"text","valueString":"American Indian or Alaska Native"}]},{"url":"http://hl7.org/fhir/us/core/StructureDefinition/us-core-ethnicity","extension":[{"url":"ombCategory","valueCoding":{"system":"urn:oid:2.16.840.1.113883.6.238","code":"2135-2","display":"Hispanic or Latino","userSelected":true}},{"url":"text","valueString":"Hispanic or Latino"}]}],"identifier":[{"type":{"coding":[{"system":"http://terminology.hl7.org/CodeSystem/v2-0203","code":"MR"}]},"system":"https://bonnie-fhir.healthit.gov/","value":"633b3fa00968f80122503d17"}],"active":true,"name":[{"use":"usual","family":"IPPass","given":["DelProcRelDtTmEQIPStart"]}],"gender":"female","birthDate":"2004-01-31"},"request":{"method":"PUT","url":"Patient/41a52455-bf64-4518-be9d-d6770572faa6"}},{"fullUrl":"https://madie.cms.gov/Encounter/b89ad9d4-4b41-40a2-a43b-650d06951757","resource":{"resourceType":"Encounter","id":"b89ad9d4-4b41-40a2-a43b-650d06951757","meta":{"profile":["http://hl7.org/fhir/us/qicore/StructureDefinition/qicore-encounter"]},"status":"finished","class":{"system":"http://terminology.hl7.org/CodeSystem/v3-ActCode","code":"IMP","display":"inpatient encounter"},"type":[{"coding":[{"system":"http://snomed.info/sct","code":"183452005"}]}],"subject":{"reference":"Patient/41a52455-bf64-4518-be9d-d6770572faa6"},"period":{"start":"2024-02-01T09:00:00.000Z","end":"2024-02-05T08:15:00.000Z"}},"request":{"method":"PUT","url":"Encounter/b89ad9d4-4b41-40a2-a43b-650d06951757"}},{"fullUrl":"https://madie.cms.gov/Encounter/21b45dd7-16ca-484b-928f-fc0fb1872279","resource":{"resourceType":"Encounter","id":"21b45dd7-16ca-484b-928f-fc0fb1872279","meta":{"profile":["http://hl7.org/fhir/us/qicore/StructureDefinition/qicore-encounter"]},"status":"finished","class":{"system":"http://terminology.hl7.org/CodeSystem/v3-ActCode","code":"IMP","display":"inpatient encounter"},"type":[{"coding":[{"system":"http://snomed.info/sct","code":"448951000124107"}]}],"subject":{"reference":"Patient/41a52455-bf64-4518-be9d-d6770572faa6"},"period":{"start":"2024-02-01T08:00:00.000Z","end":"2024-02-01T08:59:00.000Z"}},"request":{"method":"PUT","url":"Encounter/21b45dd7-16ca-484b-928f-fc0fb1872279"}},{"fullUrl":"https://madie.cms.gov/Encounter/d77e79b9-9fd7-47c1-8303-da2312a20c18","resource":{"resourceType":"Encounter","id":"d77e79b9-9fd7-47c1-8303-da2312a20c18","meta":{"profile":["http://hl7.org/fhir/us/qicore/StructureDefinition/qicore-encounter"]},"status":"finished","class":{"system":"http://terminology.hl7.org/CodeSystem/v3-ActCode","code":"IMP","display":"inpatient encounter"},"type":[{"coding":[{"system":"http://snomed.info/sct","code":"4525004"}]}],"subject":{"reference":"Patient/41a52455-bf64-4518-be9d-d6770572faa6"},"period":{"start":"2024-02-01T07:00:00.000Z","end":"2024-02-01T07:59:00.000Z"}},"request":{"method":"PUT","url":"Encounter/d77e79b9-9fd7-47c1-8303-da2312a20c18"}},{"fullUrl":"https://madie.cms.gov/Procedure/0180c3e7-16b1-46ca-b46a-6eb39a5f769e","resource":{"resourceType":"Procedure","id":"0180c3e7-16b1-46ca-b46a-6eb39a5f769e","meta":{"profile":["http://hl7.org/fhir/us/qicore/StructureDefinition/qicore-procedure"]},"extension":[{"url":"http://hl7.org/fhir/us/qicore/StructureDefinition/qicore-recorded","valueDateTime":"2013-04-05T09:35:00-04:00"}],"status":"completed","code":{"coding":[{"system":"http://snomed.info/sct","code":"10745001"}]},"subject":{"reference":"Patient/41a52455-bf64-4518-be9d-d6770572faa6"},"performedDateTime":"2024-02-01T09:00:00.000+00:00"},"request":{"method":"PUT","url":"Procedure/0180c3e7-16b1-46ca-b46a-6eb39a5f769e"}},{"fullUrl":"https://madie.cms.gov/Coverage/876defb0-7d79-4363-a4b6-1f32013169be","resource":{"resourceType":"Coverage","id":"876defb0-7d79-4363-a4b6-1f32013169be","meta":{"profile":["http://hl7.org/fhir/us/qicore/StructureDefinition/qicore-coverage"]},"status":"active","beneficiary":{"reference":"Patient/41a52455-bf64-4518-be9d-d6770572faa6"},"payor":[{"reference":"Organization/dca579e1-bfe2-44b3-9b4e-6145ed504925"}]},"request":{"method":"PUT","url":"Coverage/876defb0-7d79-4363-a4b6-1f32013169be"}},{"fullUrl":"https://madie.cms.gov/Organization/dca579e1-bfe2-44b3-9b4e-6145ed504925","resource":{"resourceType":"Organization","id":"dca579e1-bfe2-44b3-9b4e-6145ed504925","meta":{"profile":["http://hl7.org/fhir/us/qicore/StructureDefinition/qicore-organization"]},"identifier":[{"use":"temp","system":"urn:oid:2.16.840.1.113883.4.4","value":"21-3259825"}],"active":true,"type":[{"coding":[{"system":"http://terminology.hl7.org/CodeSystem/organization-type","code":"pay","display":"Payer"}]}],"name":"Blue Cross Blue Shield of Texas","telecom":[{"system":"phone","value":"(+1) 972-766-6900"}],"address":[{"use":"billing","type":"postal","line":["P.O. Box 660044"],"city":"Dallas","state":"TX","postalCode":"75266-0044","country":"USA"}]},"request":{"method":"PUT","url":"Organization/dca579e1-bfe2-44b3-9b4e-6145ed504925"}},{"fullUrl":"https://madie.cms.gov/Practitioner/1d2724e2-c34e-4a51-b3fd-693fbdf827a7","resource":{"resourceType":"Practitioner","id":"1d2724e2-c34e-4a51-b3fd-693fbdf827a7","identifier":[{"system":"http://hl7.org/fhir/sid/us-npi","value":"123456"}],"name":[{"family":"Evil","prefix":["Dr"]}]},"request":{"method":"PUT","url":"Practitioner/1d2724e2-c34e-4a51-b3fd-693fbdf827a7"}},{"fullUrl":"https://madie.cms.gov/MeasureReport/247efa4a-7739-45ff-8c23-51f6ddcb117e","resource":{"resourceType":"MeasureReport","id":"247efa4a-7739-45ff-8c23-51f6ddcb117e","meta":{"profile":["http://hl7.org/fhir/us/cqfmeasures/StructureDefinition/test-case-cqfm"]},"contained":[{"resourceType":"Parameters","id":"8cd2f1a5-616d-407d-be55-28d79ffef5e0-parameters","parameter":[{"name":"subject","valueString":"41a52455-bf64-4518-be9d-d6770572faa6"}]}],"extension":[{"url":"http://hl7.org/fhir/us/cqfmeasures/StructureDefinition/cqfm-inputParameters","valueReference":{"reference":"#8cd2f1a5-616d-407d-be55-28d79ffef5e0-parameters"}},{"url":"http://hl7.org/fhir/us/cqfmeasures/StructureDefinition/cqfm-testCaseDescription","valueMarkdown":"Delivery Procedure rel date/time = IP start.  ED/OBS/IP all meet global hospitalization criteria.\n"}],"modifierExtension":[{"url":"http://hl7.org/fhir/us/cqfmeasures/StructureDefinition/cqfm-isTestCase","valueBoolean":true}],"status":"complete","type":"individual","measure":"https://madie.cms.gov/Measure/SevereObstetricComplicationsFHIR","period":{"start":"2024-01-01","end":"2024-12-31"},"group":[{"population":[{"code":{"coding":[{"system":"http://terminology.hl7.org/CodeSystem/measure-population","code":"initial-population","display":"Initial Population"}]},"count":1},{"code":{"coding":[{"system":"http://terminology.hl7.org/CodeSystem/measure-population","code":"denominator","display":"Denominator"}]},"count":0},{"code":{"coding":[{"system":"http://terminology.hl7.org/CodeSystem/measure-population","code":"denominator-exclusion","display":"Denominator Exclusion"}]},"count":0},{"code":{"coding":[{"system":"http://terminology.hl7.org/CodeSystem/measure-population","code":"numerator","display":"Numerator"}]},"count":0}]}],"evaluatedResource":[{"reference":"Patient/41a52455-bf64-4518-be9d-d6770572faa6"},{"reference":"Encounter/b89ad9d4-4b41-40a2-a43b-650d06951757"},{"reference":"Encounter/21b45dd7-16ca-484b-928f-fc0fb1872279"},{"reference":"Encounter/d77e79b9-9fd7-47c1-8303-da2312a20c18"},{"reference":"Procedure/0180c3e7-16b1-46ca-b46a-6eb39a5f769e"},{"reference":"Coverage/876defb0-7d79-4363-a4b6-1f32013169be"},{"reference":"Organization/dca579e1-bfe2-44b3-9b4e-6145ed504925"},{"reference":"Practitioner/1d2724e2-c34e-4a51-b3fd-693fbdf827a7"}]},"request":{"method":"PUT","url":"MeasureReport/247efa4a-7739-45ff-8c23-51f6ddcb117e"}}]}