{"resourceType":"Bundle","id":"tests-6f78d24e-1f97-4bd6-8202-0c35e6086848-bundle","type":"transaction","entry":[{"fullUrl":"https://madie.cms.gov/Patient/6f78d24e-1f97-4bd6-8202-0c35e6086848","resource":{"resourceType":"Patient","id":"6f78d24e-1f97-4bd6-8202-0c35e6086848","meta":{"profile":["http://hl7.org/fhir/us/qicore/StructureDefinition/qicore-patient"]},"text":{"status":"generated","div":"<div xmlns=\"http://www.w3.org/1999/xhtml\"><div class=\"hapiHeaderText\">Age8OnDayB4EncStart <b>IPPASS </b></div><table class=\"hapiPropertyTable\"><tbody><tr><td>Date of birth</td><td><span>31 January 2004</span></td></tr></tbody></table></div>"},"extension":[{"url":"http://hl7.org/fhir/us/core/StructureDefinition/us-core-race","extension":[{"url":"ombCategory","valueCoding":{"system":"urn:oid:2.16.840.1.113883.6.238","code":"1002-5","display":"American Indian or Alaska Native","userSelected":true}},{"url":"text","valueString":"American Indian or Alaska Native"}]},{"url":"http://hl7.org/fhir/us/core/StructureDefinition/us-core-ethnicity","extension":[{"url":"ombCategory","valueCoding":{"system":"urn:oid:2.16.840.1.113883.6.238","code":"2135-2","display":"Hispanic or Latino","userSelected":true}},{"url":"text","valueString":"Hispanic or Latino"}]}],"identifier":[{"type":{"coding":[{"system":"http://terminology.hl7.org/CodeSystem/v2-0203","code":"MR"}]},"system":"https://bonnie-fhir.healthit.gov/","value":"633b3f9e0968f80122503cbc"}],"active":true,"name":[{"use":"usual","family":"IPPass","given":["Age8OnDayB4EncStart"]}],"gender":"female","birthDate":"2016-01-31"},"request":{"method":"PUT","url":"Patient/6f78d24e-1f97-4bd6-8202-0c35e6086848"}},{"fullUrl":"https://madie.cms.gov/Encounter/3d5a34a3-e5b7-440e-b682-167264762cbd","resource":{"resourceType":"Encounter","id":"3d5a34a3-e5b7-440e-b682-167264762cbd","meta":{"profile":["http://hl7.org/fhir/us/qicore/StructureDefinition/qicore-encounter"]},"status":"finished","class":{"system":"http://terminology.hl7.org/CodeSystem/v3-ActCode","code":"IMP","display":"inpatient encounter"},"type":[{"coding":[{"system":"http://snomed.info/sct","code":"183452005"}]}],"subject":{"reference":"Patient/6f78d24e-1f97-4bd6-8202-0c35e6086848"},"period":{"start":"2024-02-01T08:00:00.000Z","end":"2024-02-05T08:15:00.000Z"}},"request":{"method":"PUT","url":"Encounter/3d5a34a3-e5b7-440e-b682-167264762cbd"}},{"fullUrl":"https://madie.cms.gov/Procedure/a4386f59-3e2e-465f-8ceb-ee77f50c9440","resource":{"resourceType":"Procedure","id":"a4386f59-3e2e-465f-8ceb-ee77f50c9440","meta":{"profile":["http://hl7.org/fhir/us/qicore/StructureDefinition/qicore-procedure"]},"extension":[{"url":"http://hl7.org/fhir/us/qicore/StructureDefinition/qicore-recorded","valueDateTime":"2013-04-05T09:35:00-04:00"}],"status":"completed","code":{"coding":[{"system":"http://snomed.info/sct","code":"10745001"}]},"subject":{"reference":"Patient/6f78d24e-1f97-4bd6-8202-0c35e6086848"},"performedPeriod":{"start":"2024-02-01T08:00:00.000Z","end":"2024-02-05T08:15:00.000Z"}},"request":{"method":"PUT","url":"Procedure/a4386f59-3e2e-465f-8ceb-ee77f50c9440"}},{"fullUrl":"https://madie.cms.gov/Coverage/66ab614d-7ef9-4beb-b687-ec64b33b5ed1","resource":{"resourceType":"Coverage","id":"66ab614d-7ef9-4beb-b687-ec64b33b5ed1","meta":{"profile":["http://hl7.org/fhir/us/qicore/StructureDefinition/qicore-coverage"]},"status":"active","beneficiary":{"reference":"Patient/6f78d24e-1f97-4bd6-8202-0c35e6086848"},"payor":[{"reference":"Organization/3635be2a-43dd-4226-8ecd-3220cb10b74a"}]},"request":{"method":"PUT","url":"Coverage/66ab614d-7ef9-4beb-b687-ec64b33b5ed1"}},{"fullUrl":"https://madie.cms.gov/Organization/3635be2a-43dd-4226-8ecd-3220cb10b74a","resource":{"resourceType":"Organization","id":"3635be2a-43dd-4226-8ecd-3220cb10b74a","meta":{"profile":["http://hl7.org/fhir/us/qicore/StructureDefinition/qicore-organization"]},"identifier":[{"use":"temp","system":"urn:oid:2.16.840.1.113883.4.4","value":"21-3259825"}],"active":true,"type":[{"coding":[{"system":"http://terminology.hl7.org/CodeSystem/organization-type","code":"pay","display":"Payer"}]}],"name":"Blue Cross Blue Shield of Texas","telecom":[{"system":"phone","value":"(+1) 972-766-6900"}],"address":[{"use":"billing","type":"postal","line":["P.O. Box 660044"],"city":"Dallas","state":"TX","postalCode":"75266-0044","country":"USA"}]},"request":{"method":"PUT","url":"Organization/3635be2a-43dd-4226-8ecd-3220cb10b74a"}},{"fullUrl":"https://madie.cms.gov/Practitioner/fcaf93a3-09f1-4762-97f1-c248712a23e1","resource":{"resourceType":"Practitioner","id":"fcaf93a3-09f1-4762-97f1-c248712a23e1","identifier":[{"system":"http://hl7.org/fhir/sid/us-npi","value":"123456"}],"name":[{"family":"Evil","prefix":["Dr"]}]},"request":{"method":"PUT","url":"Practitioner/fcaf93a3-09f1-4762-97f1-c248712a23e1"}},{"fullUrl":"https://madie.cms.gov/MeasureReport/33d865c8-62b1-459f-bf4a-f8802086d04e","resource":{"resourceType":"MeasureReport","id":"33d865c8-62b1-459f-bf4a-f8802086d04e","meta":{"profile":["http://hl7.org/fhir/us/cqfmeasures/StructureDefinition/test-case-cqfm"]},"contained":[{"resourceType":"Parameters","id":"0105f0b2-ed7c-4bf3-a3e1-ba687b7c3068-parameters","parameter":[{"name":"subject","valueString":"6f78d24e-1f97-4bd6-8202-0c35e6086848"}]}],"extension":[{"url":"http://hl7.org/fhir/us/cqfmeasures/StructureDefinition/cqfm-inputParameters","valueReference":{"reference":"#0105f0b2-ed7c-4bf3-a3e1-ba687b7c3068-parameters"}},{"url":"http://hl7.org/fhir/us/cqfmeasures/StructureDefinition/cqfm-testCaseDescription","valueMarkdown":"Patient is 8 years of age on day before encounter starts.\n"}],"modifierExtension":[{"url":"http://hl7.org/fhir/us/cqfmeasures/StructureDefinition/cqfm-isTestCase","valueBoolean":true}],"status":"complete","type":"individual","measure":"https://madie.cms.gov/Measure/SevereObstetricComplicationsFHIR","period":{"start":"2024-01-01","end":"2024-12-31"},"group":[{"population":[{"code":{"coding":[{"system":"http://terminology.hl7.org/CodeSystem/measure-population","code":"initial-population","display":"Initial Population"}]},"count":1},{"code":{"coding":[{"system":"http://terminology.hl7.org/CodeSystem/measure-population","code":"denominator","display":"Denominator"}]},"count":0},{"code":{"coding":[{"system":"http://terminology.hl7.org/CodeSystem/measure-population","code":"denominator-exclusion","display":"Denominator Exclusion"}]},"count":0},{"code":{"coding":[{"system":"http://terminology.hl7.org/CodeSystem/measure-population","code":"numerator","display":"Numerator"}]},"count":0}]}],"evaluatedResource":[{"reference":"Patient/6f78d24e-1f97-4bd6-8202-0c35e6086848"},{"reference":"Encounter/3d5a34a3-e5b7-440e-b682-167264762cbd"},{"reference":"Procedure/a4386f59-3e2e-465f-8ceb-ee77f50c9440"},{"reference":"Coverage/66ab614d-7ef9-4beb-b687-ec64b33b5ed1"},{"reference":"Organization/3635be2a-43dd-4226-8ecd-3220cb10b74a"},{"reference":"Practitioner/fcaf93a3-09f1-4762-97f1-c248712a23e1"}]},"request":{"method":"PUT","url":"MeasureReport/33d865c8-62b1-459f-bf4a-f8802086d04e"}}]}