{"resourceType":"Bundle","id":"tests-2397040d-0f55-428f-878f-280d768d7c5a-bundle","type":"transaction","entry":[{"fullUrl":"https://madie.cms.gov/Patient/2397040d-0f55-428f-878f-280d768d7c5a","resource":{"resourceType":"Patient","id":"2397040d-0f55-428f-878f-280d768d7c5a","meta":{"profile":["http://hl7.org/fhir/us/qicore/StructureDefinition/qicore-patient"]},"text":{"status":"generated","div":"<div xmlns=\"http://www.w3.org/1999/xhtml\"><div class=\"hapiHeaderText\">Age64Yrs364DaysOnDayOfEncStart <b>IPPASS </b></div><table class=\"hapiPropertyTable\"><tbody><tr><td>Date of birth</td><td><span>02 February 1947</span></td></tr></tbody></table></div>"},"extension":[{"url":"http://hl7.org/fhir/us/core/StructureDefinition/us-core-race","extension":[{"url":"ombCategory","valueCoding":{"system":"urn:oid:2.16.840.1.113883.6.238","code":"1002-5","display":"American Indian or Alaska Native","userSelected":true}},{"url":"text","valueString":"American Indian or Alaska Native"}]},{"url":"http://hl7.org/fhir/us/core/StructureDefinition/us-core-ethnicity","extension":[{"url":"ombCategory","valueCoding":{"system":"urn:oid:2.16.840.1.113883.6.238","code":"2135-2","display":"Hispanic or Latino","userSelected":true}},{"url":"text","valueString":"Hispanic or Latino"}]}],"identifier":[{"type":{"coding":[{"system":"http://terminology.hl7.org/CodeSystem/v2-0203","code":"MR"}]},"system":"https://bonnie-fhir.healthit.gov/","value":"633b3f9e0968f80122503cbf"}],"active":true,"name":[{"use":"usual","family":"IPPass","given":["Age64Yrs364DaysOnDayOfEncStart"]}],"gender":"female","birthDate":"1959-02-02"},"request":{"method":"PUT","url":"Patient/2397040d-0f55-428f-878f-280d768d7c5a"}},{"fullUrl":"https://madie.cms.gov/Encounter/be6dd09f-ca5e-4143-853c-c80169ecd102","resource":{"resourceType":"Encounter","id":"be6dd09f-ca5e-4143-853c-c80169ecd102","meta":{"profile":["http://hl7.org/fhir/us/qicore/StructureDefinition/qicore-encounter"]},"status":"finished","class":{"system":"http://terminology.hl7.org/CodeSystem/v3-ActCode","code":"IMP","display":"inpatient encounter"},"type":[{"coding":[{"system":"http://snomed.info/sct","code":"183452005"}]}],"subject":{"reference":"Patient/2397040d-0f55-428f-878f-280d768d7c5a"},"period":{"start":"2024-02-01T08:00:00.000Z","end":"2024-02-05T08:15:00.000Z"}},"request":{"method":"PUT","url":"Encounter/be6dd09f-ca5e-4143-853c-c80169ecd102"}},{"fullUrl":"https://madie.cms.gov/Procedure/0d813271-520a-4e86-800a-cf1df5a86d7e","resource":{"resourceType":"Procedure","id":"0d813271-520a-4e86-800a-cf1df5a86d7e","meta":{"profile":["http://hl7.org/fhir/us/qicore/StructureDefinition/qicore-procedure"]},"extension":[{"url":"http://hl7.org/fhir/us/qicore/StructureDefinition/qicore-recorded","valueDateTime":"2013-04-05T09:35:00-04:00"}],"status":"completed","code":{"coding":[{"system":"http://snomed.info/sct","code":"10745001"}]},"subject":{"reference":"Patient/2397040d-0f55-428f-878f-280d768d7c5a"},"performedPeriod":{"start":"2024-02-01T08:00:00.000Z","end":"2024-02-05T08:15:00.000Z"}},"request":{"method":"PUT","url":"Procedure/0d813271-520a-4e86-800a-cf1df5a86d7e"}},{"fullUrl":"https://madie.cms.gov/Coverage/31aa030d-4a5b-47aa-af2b-c16a0efe60dd","resource":{"resourceType":"Coverage","id":"31aa030d-4a5b-47aa-af2b-c16a0efe60dd","meta":{"profile":["http://hl7.org/fhir/us/qicore/StructureDefinition/qicore-coverage"]},"status":"active","beneficiary":{"reference":"Patient/2397040d-0f55-428f-878f-280d768d7c5a"},"payor":[{"reference":"Organization/ae8f89f2-636c-466a-a270-a40b65981d71"}]},"request":{"method":"PUT","url":"Coverage/31aa030d-4a5b-47aa-af2b-c16a0efe60dd"}},{"fullUrl":"https://madie.cms.gov/Organization/ae8f89f2-636c-466a-a270-a40b65981d71","resource":{"resourceType":"Organization","id":"ae8f89f2-636c-466a-a270-a40b65981d71","meta":{"profile":["http://hl7.org/fhir/us/qicore/StructureDefinition/qicore-organization"]},"identifier":[{"use":"temp","system":"urn:oid:2.16.840.1.113883.4.4","value":"21-3259825"}],"active":true,"type":[{"coding":[{"system":"http://terminology.hl7.org/CodeSystem/organization-type","code":"pay","display":"Payer"}]}],"name":"Blue Cross Blue Shield of Texas","telecom":[{"system":"phone","value":"(+1) 972-766-6900"}],"address":[{"use":"billing","type":"postal","line":["P.O. Box 660044"],"city":"Dallas","state":"TX","postalCode":"75266-0044","country":"USA"}]},"request":{"method":"PUT","url":"Organization/ae8f89f2-636c-466a-a270-a40b65981d71"}},{"fullUrl":"https://madie.cms.gov/Practitioner/5d70430c-b2f5-4d0e-8ad2-6d3dda8c06c1","resource":{"resourceType":"Practitioner","id":"5d70430c-b2f5-4d0e-8ad2-6d3dda8c06c1","identifier":[{"system":"http://hl7.org/fhir/sid/us-npi","value":"123456"}],"name":[{"family":"Evil","prefix":["Dr"]}]},"request":{"method":"PUT","url":"Practitioner/5d70430c-b2f5-4d0e-8ad2-6d3dda8c06c1"}},{"fullUrl":"https://madie.cms.gov/MeasureReport/dc0d532f-dc60-48ec-ae0d-51572d3b66d4","resource":{"resourceType":"MeasureReport","id":"dc0d532f-dc60-48ec-ae0d-51572d3b66d4","meta":{"profile":["http://hl7.org/fhir/us/cqfmeasures/StructureDefinition/test-case-cqfm"]},"contained":[{"resourceType":"Parameters","id":"bb94315b-7af9-48fc-92fc-e71717d7f7a7-parameters","parameter":[{"name":"subject","valueString":"2397040d-0f55-428f-878f-280d768d7c5a"}]}],"extension":[{"url":"http://hl7.org/fhir/us/cqfmeasures/StructureDefinition/cqfm-inputParameters","valueReference":{"reference":"#bb94315b-7af9-48fc-92fc-e71717d7f7a7-parameters"}},{"url":"http://hl7.org/fhir/us/cqfmeasures/StructureDefinition/cqfm-testCaseDescription","valueMarkdown":"Patient is 64 years and 364 days of age on day encounter starts.\n"}],"modifierExtension":[{"url":"http://hl7.org/fhir/us/cqfmeasures/StructureDefinition/cqfm-isTestCase","valueBoolean":true}],"status":"complete","type":"individual","measure":"https://madie.cms.gov/Measure/SevereObstetricComplicationsFHIR","period":{"start":"2024-01-01","end":"2024-12-31"},"group":[{"population":[{"code":{"coding":[{"system":"http://terminology.hl7.org/CodeSystem/measure-population","code":"initial-population","display":"Initial Population"}]},"count":1},{"code":{"coding":[{"system":"http://terminology.hl7.org/CodeSystem/measure-population","code":"denominator","display":"Denominator"}]},"count":0},{"code":{"coding":[{"system":"http://terminology.hl7.org/CodeSystem/measure-population","code":"denominator-exclusion","display":"Denominator Exclusion"}]},"count":0},{"code":{"coding":[{"system":"http://terminology.hl7.org/CodeSystem/measure-population","code":"numerator","display":"Numerator"}]},"count":0}]}],"evaluatedResource":[{"reference":"Patient/2397040d-0f55-428f-878f-280d768d7c5a"},{"reference":"Encounter/be6dd09f-ca5e-4143-853c-c80169ecd102"},{"reference":"Procedure/0d813271-520a-4e86-800a-cf1df5a86d7e"},{"reference":"Coverage/31aa030d-4a5b-47aa-af2b-c16a0efe60dd"},{"reference":"Organization/ae8f89f2-636c-466a-a270-a40b65981d71"},{"reference":"Practitioner/5d70430c-b2f5-4d0e-8ad2-6d3dda8c06c1"}]},"request":{"method":"PUT","url":"MeasureReport/dc0d532f-dc60-48ec-ae0d-51572d3b66d4"}}]}