{"resourceType":"Bundle","id":"tests-4c51eb20-f137-4ba1-b4ba-eeacf2d0b99b-bundle","type":"transaction","entry":[{"fullUrl":"https://madie.cms.gov/Patient/4c51eb20-f137-4ba1-b4ba-eeacf2d0b99b","resource":{"resourceType":"Patient","id":"4c51eb20-f137-4ba1-b4ba-eeacf2d0b99b","meta":{"profile":["http://hl7.org/fhir/us/qicore/StructureDefinition/qicore-patient"]},"text":{"status":"generated","div":"<div xmlns=\"http://www.w3.org/1999/xhtml\"><div class=\"hapiHeaderText\">AssPrfDelRelvDt1MinB4EncIPStarts <b>DENOMFAIL </b></div><table class=\"hapiPropertyTable\"><tbody><tr><td>Date of birth</td><td><span>01 February 2004</span></td></tr></tbody></table></div>"},"extension":[{"url":"http://hl7.org/fhir/us/core/StructureDefinition/us-core-race","extension":[{"url":"ombCategory","valueCoding":{"system":"urn:oid:2.16.840.1.113883.6.238","code":"1002-5","display":"American Indian or Alaska Native","userSelected":true}},{"url":"text","valueString":"American Indian or Alaska Native"}]},{"url":"http://hl7.org/fhir/us/core/StructureDefinition/us-core-ethnicity","extension":[{"url":"ombCategory","valueCoding":{"system":"urn:oid:2.16.840.1.113883.6.238","code":"2135-2","display":"Hispanic or Latino","userSelected":true}},{"url":"text","valueString":"Hispanic or Latino"}]}],"identifier":[{"type":{"coding":[{"system":"http://terminology.hl7.org/CodeSystem/v2-0203","code":"MR"}]},"system":"https://bonnie-fhir.healthit.gov/","value":"633b3f9e0968f80122503cca"}],"active":true,"name":[{"use":"usual","family":"DENOMFail","given":["AssPrfDelRelvDt1MinB4EncIPStarts"]}],"gender":"female","birthDate":"2004-02-01"},"request":{"method":"PUT","url":"Patient/4c51eb20-f137-4ba1-b4ba-eeacf2d0b99b"}},{"fullUrl":"https://madie.cms.gov/Observation/51e9a59c-9d32-4ef6-8aa7-abd67192546f","resource":{"resourceType":"Observation","id":"51e9a59c-9d32-4ef6-8aa7-abd67192546f","meta":{"profile":["http://hl7.org/fhir/us/qicore/StructureDefinition/qicore-observation"]},"status":"final","category":[{"coding":[{"system":"http://terminology.hl7.org/CodeSystem/observation-category","code":"exam","display":"exam","userSelected":true}]}],"code":{"coding":[{"system":"http://loinc.org","code":"93857-1"}]},"subject":{"reference":"Patient/4c51eb20-f137-4ba1-b4ba-eeacf2d0b99b"},"effectiveDateTime":"2024-02-01T07:59:00.000+00:00","valueDateTime":"2024-02-01T08:00:00+00:00"},"request":{"method":"PUT","url":"Observation/51e9a59c-9d32-4ef6-8aa7-abd67192546f"}},{"fullUrl":"https://madie.cms.gov/Observation/695fa3a2-c498-4054-91c3-730b67aca0b8","resource":{"resourceType":"Observation","id":"695fa3a2-c498-4054-91c3-730b67aca0b8","meta":{"profile":["http://hl7.org/fhir/us/qicore/StructureDefinition/qicore-observation"]},"status":"final","category":[{"coding":[{"system":"http://terminology.hl7.org/CodeSystem/observation-category","code":"exam","display":"exam","userSelected":true}]}],"code":{"coding":[{"system":"http://loinc.org","code":"11778-8"}]},"subject":{"reference":"Patient/4c51eb20-f137-4ba1-b4ba-eeacf2d0b99b"},"effectiveDateTime":"2024-02-01T08:00:00.000+00:00","valueDateTime":"2024-02-01T08:00:00.000+00:00"},"request":{"method":"PUT","url":"Observation/695fa3a2-c498-4054-91c3-730b67aca0b8"}},{"fullUrl":"https://madie.cms.gov/Encounter/045457e7-8d2b-492c-9b5d-a48aa0682427","resource":{"resourceType":"Encounter","id":"045457e7-8d2b-492c-9b5d-a48aa0682427","meta":{"profile":["http://hl7.org/fhir/us/qicore/StructureDefinition/qicore-encounter"]},"status":"finished","class":{"system":"http://terminology.hl7.org/CodeSystem/v3-ActCode","code":"IMP","display":"inpatient encounter"},"type":[{"coding":[{"system":"http://snomed.info/sct","code":"183452005"}]}],"subject":{"reference":"Patient/4c51eb20-f137-4ba1-b4ba-eeacf2d0b99b"},"period":{"start":"2024-02-01T08:00:00.000Z","end":"2024-02-05T08:15:00.000Z"}},"request":{"method":"PUT","url":"Encounter/045457e7-8d2b-492c-9b5d-a48aa0682427"}},{"fullUrl":"https://madie.cms.gov/Coverage/05d2d3e8-556e-4216-926f-34e9d558614f","resource":{"resourceType":"Coverage","id":"05d2d3e8-556e-4216-926f-34e9d558614f","status":"active","beneficiary":{"reference":"Patient/4c51eb20-f137-4ba1-b4ba-eeacf2d0b99b"},"period":{"start":"2004-02-01T08:00:00.000Z"},"payor":[{"reference":"Organization/a52b75e7-ebe1-47df-afe0-b88adedbb390"}]},"request":{"method":"PUT","url":"Coverage/05d2d3e8-556e-4216-926f-34e9d558614f"}},{"fullUrl":"https://madie.cms.gov/Procedure/666d81d9-6b9a-42f8-b6fa-891a3c1b006e","resource":{"resourceType":"Procedure","id":"666d81d9-6b9a-42f8-b6fa-891a3c1b006e","meta":{"profile":["http://hl7.org/fhir/us/qicore/StructureDefinition/qicore-procedure"]},"extension":[{"url":"http://hl7.org/fhir/us/qicore/StructureDefinition/qicore-recorded","valueDateTime":"2013-04-05T09:35:00-04:00"}],"status":"completed","code":{"coding":[{"system":"http://snomed.info/sct","code":"10745001"}]},"subject":{"reference":"Patient/4c51eb20-f137-4ba1-b4ba-eeacf2d0b99b"},"performedPeriod":{"start":"2024-02-01T08:00:00.000Z","end":"2024-02-05T08:15:00.000Z"}},"request":{"method":"PUT","url":"Procedure/666d81d9-6b9a-42f8-b6fa-891a3c1b006e"}},{"fullUrl":"https://madie.cms.gov/Organization/a52b75e7-ebe1-47df-afe0-b88adedbb390","resource":{"resourceType":"Organization","id":"a52b75e7-ebe1-47df-afe0-b88adedbb390","meta":{"profile":["http://hl7.org/fhir/us/qicore/StructureDefinition/qicore-organization"]},"identifier":[{"use":"temp","system":"urn:oid:2.16.840.1.113883.4.4","value":"21-3259825"}],"active":true,"type":[{"coding":[{"system":"http://terminology.hl7.org/CodeSystem/organization-type","code":"pay","display":"Payer"}]}],"name":"Blue Cross Blue Shield of Texas","telecom":[{"system":"phone","value":"(+1) 972-766-6900"}],"address":[{"use":"billing","type":"postal","line":["P.O. Box 660044"],"city":"Dallas","state":"TX","postalCode":"75266-0044","country":"USA"}]},"request":{"method":"PUT","url":"Organization/a52b75e7-ebe1-47df-afe0-b88adedbb390"}},{"fullUrl":"https://madie.cms.gov/Practitioner/a0fcb1ae-0da2-4767-ae90-28b1ddf016b3","resource":{"resourceType":"Practitioner","id":"a0fcb1ae-0da2-4767-ae90-28b1ddf016b3","identifier":[{"system":"http://hl7.org/fhir/sid/us-npi","value":"123456"}],"name":[{"family":"Evil","prefix":["Dr"]}]},"request":{"method":"PUT","url":"Practitioner/a0fcb1ae-0da2-4767-ae90-28b1ddf016b3"}},{"fullUrl":"https://madie.cms.gov/MeasureReport/5380a6c1-6a28-4380-bb1d-81b7e76751ee","resource":{"resourceType":"MeasureReport","id":"5380a6c1-6a28-4380-bb1d-81b7e76751ee","meta":{"profile":["http://hl7.org/fhir/us/cqfmeasures/StructureDefinition/test-case-cqfm"]},"contained":[{"resourceType":"Parameters","id":"851b8776-6085-4454-a183-bb25a8709869-parameters","parameter":[{"name":"subject","valueString":"4c51eb20-f137-4ba1-b4ba-eeacf2d0b99b"}]}],"extension":[{"url":"http://hl7.org/fhir/us/cqfmeasures/StructureDefinition/cqfm-inputParameters","valueReference":{"reference":"#851b8776-6085-4454-a183-bb25a8709869-parameters"}},{"url":"http://hl7.org/fhir/us/cqfmeasures/StructureDefinition/cqfm-testCaseDescription","valueMarkdown":"Relevant date/Time of delivery (based on assessment performed) is equal to 1 minute before the encounter starts\n"}],"modifierExtension":[{"url":"http://hl7.org/fhir/us/cqfmeasures/StructureDefinition/cqfm-isTestCase","valueBoolean":true}],"status":"complete","type":"individual","measure":"https://madie.cms.gov/Measure/SevereObstetricComplicationsFHIR","period":{"start":"2024-01-01","end":"2024-12-31"},"group":[{"population":[{"code":{"coding":[{"system":"http://terminology.hl7.org/CodeSystem/measure-population","code":"initial-population","display":"Initial Population"}]},"count":1},{"code":{"coding":[{"system":"http://terminology.hl7.org/CodeSystem/measure-population","code":"denominator","display":"Denominator"}]},"count":0},{"code":{"coding":[{"system":"http://terminology.hl7.org/CodeSystem/measure-population","code":"denominator-exclusion","display":"Denominator Exclusion"}]},"count":0},{"code":{"coding":[{"system":"http://terminology.hl7.org/CodeSystem/measure-population","code":"numerator","display":"Numerator"}]},"count":0}]}],"evaluatedResource":[{"reference":"Patient/4c51eb20-f137-4ba1-b4ba-eeacf2d0b99b"},{"reference":"Observation/51e9a59c-9d32-4ef6-8aa7-abd67192546f"},{"reference":"Observation/695fa3a2-c498-4054-91c3-730b67aca0b8"},{"reference":"Encounter/045457e7-8d2b-492c-9b5d-a48aa0682427"},{"reference":"Coverage/05d2d3e8-556e-4216-926f-34e9d558614f"},{"reference":"Procedure/666d81d9-6b9a-42f8-b6fa-891a3c1b006e"},{"reference":"Organization/a52b75e7-ebe1-47df-afe0-b88adedbb390"},{"reference":"Practitioner/a0fcb1ae-0da2-4767-ae90-28b1ddf016b3"}]},"request":{"method":"PUT","url":"MeasureReport/5380a6c1-6a28-4380-bb1d-81b7e76751ee"}}]}