{"resourceType":"Bundle","id":"tests-8ee698d1-9d49-4625-bdfb-96be2eae60c2-bundle","type":"transaction","entry":[{"fullUrl":"https://madie.cms.gov/Patient/8ee698d1-9d49-4625-bdfb-96be2eae60c2","resource":{"resourceType":"Patient","id":"8ee698d1-9d49-4625-bdfb-96be2eae60c2","meta":{"profile":["http://hl7.org/fhir/us/qicore/StructureDefinition/qicore-patient"]},"text":{"status":"generated","div":"<div xmlns=\"http://www.w3.org/1999/xhtml\"><div class=\"hapiHeaderText\">BloodTransfusionRelvDtTime1MinAftMidnightDayOfEDOBTriageHosp <b>NUMPass </b></div><table class=\"hapiPropertyTable\"><tbody><tr><td>Date of birth</td><td><span>01 February 2004</span></td></tr></tbody></table></div>"},"extension":[{"url":"http://hl7.org/fhir/us/core/StructureDefinition/us-core-race","extension":[{"url":"ombCategory","valueCoding":{"system":"urn:oid:2.16.840.1.113883.6.238","code":"1002-5","display":"American Indian or Alaska Native","userSelected":true}},{"url":"text","valueString":"American Indian or Alaska Native"}]},{"url":"http://hl7.org/fhir/us/core/StructureDefinition/us-core-ethnicity","extension":[{"url":"ombCategory","valueCoding":{"system":"urn:oid:2.16.840.1.113883.6.238","code":"2135-2","display":"Hispanic or Latino","userSelected":true}},{"url":"text","valueString":"Hispanic or Latino"}]}],"identifier":[{"type":{"coding":[{"system":"http://terminology.hl7.org/CodeSystem/v2-0203","code":"MR"}]},"system":"https://bonnie-fhir.healthit.gov/","value":"633b3f9f0968f80122503cdb"}],"active":true,"name":[{"use":"usual","family":"NUMPass","given":["BloodTransfusionRelvDtTime1MinAftMidnightDayOfEDOBTriageHosp"]}],"gender":"female","birthDate":"2004-02-01"},"request":{"method":"PUT","url":"Patient/8ee698d1-9d49-4625-bdfb-96be2eae60c2"}},{"fullUrl":"https://madie.cms.gov/Observation/288c3c11-663b-4c6d-829c-373b0ff06d69","resource":{"resourceType":"Observation","id":"288c3c11-663b-4c6d-829c-373b0ff06d69","meta":{"profile":["http://hl7.org/fhir/us/qicore/StructureDefinition/qicore-observation"]},"status":"final","category":[{"coding":[{"system":"http://terminology.hl7.org/CodeSystem/observation-category","code":"exam","display":"exam","userSelected":true}]}],"code":{"coding":[{"system":"http://loinc.org","code":"93857-1"}]},"subject":{"reference":"Patient/8ee698d1-9d49-4625-bdfb-96be2eae60c2"},"effectiveDateTime":"2024-02-01T08:00:00.000+00:00","valueDateTime":"2024-02-01T08:00:00+00:00"},"request":{"method":"PUT","url":"Observation/288c3c11-663b-4c6d-829c-373b0ff06d69"}},{"fullUrl":"https://madie.cms.gov/Observation/92439040-f2a8-46b3-984f-6db9c7e4a933","resource":{"resourceType":"Observation","id":"92439040-f2a8-46b3-984f-6db9c7e4a933","meta":{"profile":["http://hl7.org/fhir/us/qicore/StructureDefinition/qicore-observation"]},"status":"final","category":[{"coding":[{"system":"http://terminology.hl7.org/CodeSystem/observation-category","code":"exam","display":"exam","userSelected":true}]}],"code":{"coding":[{"system":"http://loinc.org","code":"11884-4"}]},"subject":{"reference":"Patient/8ee698d1-9d49-4625-bdfb-96be2eae60c2"},"effectiveDateTime":"2024-02-01T08:00:00.000+00:00","valueQuantity":{"value":20,"system":"http://unitsofmeasure.org","code":"wk"}},"request":{"method":"PUT","url":"Observation/92439040-f2a8-46b3-984f-6db9c7e4a933"}},{"fullUrl":"https://madie.cms.gov/Observation/f2ef2751-bef3-4878-9753-d1c0915bc3e8","resource":{"resourceType":"Observation","id":"f2ef2751-bef3-4878-9753-d1c0915bc3e8","meta":{"profile":["http://hl7.org/fhir/us/qicore/StructureDefinition/qicore-observation"]},"status":"final","category":[{"coding":[{"system":"http://terminology.hl7.org/CodeSystem/observation-category","code":"exam","display":"exam","userSelected":true}]}],"code":{"coding":[{"system":"http://loinc.org","code":"11884-4"}]},"subject":{"reference":"Patient/8ee698d1-9d49-4625-bdfb-96be2eae60c2"},"effectiveDateTime":"2024-02-01T08:01:00.000+00:00"},"request":{"method":"PUT","url":"Observation/f2ef2751-bef3-4878-9753-d1c0915bc3e8"}},{"fullUrl":"https://madie.cms.gov/Encounter/2520baee-a15d-4c35-8595-230f3f8d7c18","resource":{"resourceType":"Encounter","id":"2520baee-a15d-4c35-8595-230f3f8d7c18","meta":{"profile":["http://hl7.org/fhir/us/qicore/StructureDefinition/qicore-encounter"]},"status":"finished","class":{"system":"http://terminology.hl7.org/CodeSystem/v3-ActCode","code":"IMP","display":"inpatient encounter"},"type":[{"coding":[{"system":"http://snomed.info/sct","code":"183452005"}]}],"subject":{"reference":"Patient/8ee698d1-9d49-4625-bdfb-96be2eae60c2"},"period":{"start":"2024-02-01T08:00:00.000Z","end":"2024-02-05T08:15:00.000Z"}},"request":{"method":"PUT","url":"Encounter/2520baee-a15d-4c35-8595-230f3f8d7c18"}},{"fullUrl":"https://madie.cms.gov/Coverage/f02fe811-a5a9-45cc-b1d8-cae3ed0e1d8c","resource":{"resourceType":"Coverage","id":"f02fe811-a5a9-45cc-b1d8-cae3ed0e1d8c","status":"active","beneficiary":{"reference":"Patient/8ee698d1-9d49-4625-bdfb-96be2eae60c2"},"period":{"start":"2004-02-01T08:00:00.000Z"},"payor":[{"reference":"Organization/e1fe8d75-c759-4838-8f70-fe244207deb9"}]},"request":{"method":"PUT","url":"Coverage/f02fe811-a5a9-45cc-b1d8-cae3ed0e1d8c"}},{"fullUrl":"https://madie.cms.gov/Procedure/e97adebe-98d3-43d7-bb7e-dda8bc5b6128","resource":{"resourceType":"Procedure","id":"e97adebe-98d3-43d7-bb7e-dda8bc5b6128","meta":{"profile":["http://hl7.org/fhir/us/qicore/StructureDefinition/qicore-procedure"]},"extension":[{"url":"http://hl7.org/fhir/us/qicore/StructureDefinition/qicore-recorded","valueDateTime":"2013-04-05T09:35:00-04:00"}],"status":"completed","code":{"coding":[{"system":"http://snomed.info/sct","code":"10745001"}]},"subject":{"reference":"Patient/8ee698d1-9d49-4625-bdfb-96be2eae60c2"},"performedPeriod":{"start":"2024-02-01T08:00:00.000Z","end":"2024-02-05T08:15:00.000Z"}},"request":{"method":"PUT","url":"Procedure/e97adebe-98d3-43d7-bb7e-dda8bc5b6128"}},{"fullUrl":"https://madie.cms.gov/Procedure/951c140c-8342-4ce1-a069-45ee72283dd9","resource":{"resourceType":"Procedure","id":"951c140c-8342-4ce1-a069-45ee72283dd9","meta":{"profile":["http://hl7.org/fhir/us/qicore/StructureDefinition/qicore-procedure"]},"extension":[{"url":"http://hl7.org/fhir/us/qicore/StructureDefinition/qicore-recorded","valueDateTime":"2024-02-01T00:01:00-04:00"}],"status":"completed","code":{"coding":[{"system":"http://snomed.info/sct","code":"11397000"}]},"subject":{"reference":"Patient/8ee698d1-9d49-4625-bdfb-96be2eae60c2"},"performedPeriod":{"start":"2024-02-01T08:00:00.000Z","end":"2024-02-05T08:15:00.000Z"}},"request":{"method":"PUT","url":"Procedure/951c140c-8342-4ce1-a069-45ee72283dd9"}},{"fullUrl":"https://madie.cms.gov/Organization/e1fe8d75-c759-4838-8f70-fe244207deb9","resource":{"resourceType":"Organization","id":"e1fe8d75-c759-4838-8f70-fe244207deb9","meta":{"profile":["http://hl7.org/fhir/us/qicore/StructureDefinition/qicore-organization"]},"identifier":[{"use":"temp","system":"urn:oid:2.16.840.1.113883.4.4","value":"21-3259825"}],"active":true,"type":[{"coding":[{"system":"http://terminology.hl7.org/CodeSystem/organization-type","code":"pay","display":"Payer"}]}],"name":"Blue Cross Blue Shield of Texas","telecom":[{"system":"phone","value":"(+1) 972-766-6900"}],"address":[{"use":"billing","type":"postal","line":["P.O. Box 660044"],"city":"Dallas","state":"TX","postalCode":"75266-0044","country":"USA"}]},"request":{"method":"PUT","url":"Organization/e1fe8d75-c759-4838-8f70-fe244207deb9"}},{"fullUrl":"https://madie.cms.gov/Practitioner/6755d6d5-f679-4e2b-8c9e-d63ae6efef3e","resource":{"resourceType":"Practitioner","id":"6755d6d5-f679-4e2b-8c9e-d63ae6efef3e","identifier":[{"system":"http://hl7.org/fhir/sid/us-npi","value":"123456"}],"name":[{"family":"Evil","prefix":["Dr"]}]},"request":{"method":"PUT","url":"Practitioner/6755d6d5-f679-4e2b-8c9e-d63ae6efef3e"}},{"fullUrl":"https://madie.cms.gov/MeasureReport/09edbceb-3ed9-4cc4-9880-ebc87befdd6b","resource":{"resourceType":"MeasureReport","id":"09edbceb-3ed9-4cc4-9880-ebc87befdd6b","meta":{"profile":["http://hl7.org/fhir/us/cqfmeasures/StructureDefinition/test-case-cqfm"]},"contained":[{"resourceType":"Parameters","id":"06c56d5e-aa0d-4d43-8e6c-3defb3deecdc-parameters","parameter":[{"name":"subject","valueString":"8ee698d1-9d49-4625-bdfb-96be2eae60c2"}]}],"extension":[{"url":"http://hl7.org/fhir/us/cqfmeasures/StructureDefinition/cqfm-inputParameters","valueReference":{"reference":"#06c56d5e-aa0d-4d43-8e6c-3defb3deecdc-parameters"}},{"url":"http://hl7.org/fhir/us/cqfmeasures/StructureDefinition/cqfm-testCaseDescription","valueMarkdown":"Blood Transfusion Relevant Date Time 1 Minute after midnight day of encounter begin\n"}],"modifierExtension":[{"url":"http://hl7.org/fhir/us/cqfmeasures/StructureDefinition/cqfm-isTestCase","valueBoolean":true}],"status":"complete","type":"individual","measure":"https://madie.cms.gov/Measure/SevereObstetricComplicationsFHIR","period":{"start":"2024-01-01","end":"2024-12-31"},"group":[{"population":[{"code":{"coding":[{"system":"http://terminology.hl7.org/CodeSystem/measure-population","code":"initial-population","display":"Initial Population"}]},"count":1},{"code":{"coding":[{"system":"http://terminology.hl7.org/CodeSystem/measure-population","code":"denominator","display":"Denominator"}]},"count":1},{"code":{"coding":[{"system":"http://terminology.hl7.org/CodeSystem/measure-population","code":"denominator-exclusion","display":"Denominator Exclusion"}]},"count":0},{"code":{"coding":[{"system":"http://terminology.hl7.org/CodeSystem/measure-population","code":"numerator","display":"Numerator"}]},"count":1}]}],"evaluatedResource":[{"reference":"Patient/8ee698d1-9d49-4625-bdfb-96be2eae60c2"},{"reference":"Observation/288c3c11-663b-4c6d-829c-373b0ff06d69"},{"reference":"Observation/92439040-f2a8-46b3-984f-6db9c7e4a933"},{"reference":"Observation/f2ef2751-bef3-4878-9753-d1c0915bc3e8"},{"reference":"Encounter/2520baee-a15d-4c35-8595-230f3f8d7c18"},{"reference":"Coverage/f02fe811-a5a9-45cc-b1d8-cae3ed0e1d8c"},{"reference":"Procedure/e97adebe-98d3-43d7-bb7e-dda8bc5b6128"},{"reference":"Procedure/951c140c-8342-4ce1-a069-45ee72283dd9"},{"reference":"Organization/e1fe8d75-c759-4838-8f70-fe244207deb9"},{"reference":"Practitioner/6755d6d5-f679-4e2b-8c9e-d63ae6efef3e"}]},"request":{"method":"PUT","url":"MeasureReport/09edbceb-3ed9-4cc4-9880-ebc87befdd6b"}}]}