{"resourceType":"Bundle","id":"tests-49e30f9d-760a-4227-bbd3-b8d5f7f29189-bundle","type":"transaction","entry":[{"fullUrl":"https://madie.cms.gov/Patient/49e30f9d-760a-4227-bbd3-b8d5f7f29189","resource":{"resourceType":"Patient","id":"49e30f9d-760a-4227-bbd3-b8d5f7f29189","meta":{"profile":["http://hl7.org/fhir/us/qicore/StructureDefinition/qicore-patient"]},"text":{"status":"generated","div":"<div xmlns=\"http://www.w3.org/1999/xhtml\"><div class=\"hapiHeaderText\">Risk_NeuromuscularDisease<b>RISKPass </b></div><table class=\"hapiPropertyTable\"><tbody><tr><td>Date of birth</td><td><span>01 February 2004</span></td></tr></tbody></table></div>"},"extension":[{"url":"http://hl7.org/fhir/us/core/StructureDefinition/us-core-race","extension":[{"url":"ombCategory","valueCoding":{"system":"urn:oid:2.16.840.1.113883.6.238","code":"1002-5","display":"American Indian or Alaska Native","userSelected":true}},{"url":"text","valueString":"American Indian or Alaska Native"}]},{"url":"http://hl7.org/fhir/us/core/StructureDefinition/us-core-ethnicity","extension":[{"url":"ombCategory","valueCoding":{"system":"urn:oid:2.16.840.1.113883.6.238","code":"2135-2","display":"Hispanic or Latino","userSelected":true}},{"url":"text","valueString":"Hispanic or Latino"}]}],"identifier":[{"type":{"coding":[{"system":"http://terminology.hl7.org/CodeSystem/v2-0203","code":"MR"}]},"system":"https://bonnie-fhir.healthit.gov/","value":"63594c7a6aee9629c82981df"}],"active":true,"name":[{"use":"usual","family":"RiskPass","given":["Risk_NeuromuscularDisease"]}],"gender":"female","birthDate":"2004-02-01"},"request":{"method":"PUT","url":"Patient/49e30f9d-760a-4227-bbd3-b8d5f7f29189"}},{"fullUrl":"https://madie.cms.gov/Observation/66276e55-9209-47c6-94c2-47436c576159","resource":{"resourceType":"Observation","id":"66276e55-9209-47c6-94c2-47436c576159","meta":{"profile":["http://hl7.org/fhir/us/qicore/StructureDefinition/qicore-observation"]},"status":"final","category":[{"coding":[{"system":"http://terminology.hl7.org/CodeSystem/observation-category","code":"exam","display":"exam","userSelected":true}]}],"code":{"coding":[{"system":"http://loinc.org","code":"93857-1"}]},"subject":{"reference":"Patient/49e30f9d-760a-4227-bbd3-b8d5f7f29189"},"effectiveDateTime":"2024-02-01T08:00:00.000+00:00","valueDateTime":"2024-02-01T08:00:00+00:00"},"request":{"method":"PUT","url":"Observation/66276e55-9209-47c6-94c2-47436c576159"}},{"fullUrl":"https://madie.cms.gov/Observation/ac40ca3a-a44c-470f-957b-416d3301cbd9","resource":{"resourceType":"Observation","id":"ac40ca3a-a44c-470f-957b-416d3301cbd9","meta":{"profile":["http://hl7.org/fhir/us/qicore/StructureDefinition/qicore-observation"]},"status":"final","category":[{"coding":[{"system":"http://terminology.hl7.org/CodeSystem/observation-category","code":"exam","display":"exam","userSelected":true}]}],"code":{"coding":[{"system":"http://loinc.org","code":"11778-8"}]},"subject":{"reference":"Patient/49e30f9d-760a-4227-bbd3-b8d5f7f29189"},"effectiveDateTime":"2024-02-01T08:00:00.000+00:00","valueDateTime":"2024-02-01T00:00:00.000+00:00"},"request":{"method":"PUT","url":"Observation/ac40ca3a-a44c-470f-957b-416d3301cbd9"}},{"fullUrl":"https://madie.cms.gov/Encounter/547ab067-329b-4830-9a6b-61a0da75e720","resource":{"resourceType":"Encounter","id":"547ab067-329b-4830-9a6b-61a0da75e720","meta":{"profile":["http://hl7.org/fhir/us/qicore/StructureDefinition/qicore-encounter"]},"status":"finished","class":{"system":"http://terminology.hl7.org/CodeSystem/v3-ActCode","code":"IMP","display":"inpatient encounter"},"type":[{"coding":[{"system":"http://snomed.info/sct","code":"183452005"}]}],"subject":{"reference":"Patient/49e30f9d-760a-4227-bbd3-b8d5f7f29189"},"period":{"start":"2024-02-01T08:00:00.000Z","end":"2024-02-05T08:15:00.000Z"},"diagnosis":[{"extension":[{"url":"http://hl7.org/fhir/us/qicore/StructureDefinition/qicore-encounter-diagnosisPresentOnAdmission","valueCodeableConcept":{"coding":[{"system":"https://www.cms.gov/Medicare/Medicare-Fee-for-Service-Payment/HospitalAcqCond/Coding","code":"Y"}]}}],"condition":{"reference":"Condition/61cb6435-d80f-4e38-a642-0dcb1bdb5830"}},{"extension":[{"url":"http://hl7.org/fhir/us/qicore/StructureDefinition/qicore-encounter-diagnosisPresentOnAdmission","valueCodeableConcept":{"coding":[{"system":"https://www.cms.gov/Medicare/Medicare-Fee-for-Service-Payment/HospitalAcqCond/Coding","code":"N"}]}}],"condition":{"reference":"Condition/215cefe2-e5a9-4dee-b2fe-3a93225ebe3f"}}]},"request":{"method":"PUT","url":"Encounter/547ab067-329b-4830-9a6b-61a0da75e720"}},{"fullUrl":"https://madie.cms.gov/Procedure/a220a091-54ea-4136-b5df-1bf1510f5dde","resource":{"resourceType":"Procedure","id":"a220a091-54ea-4136-b5df-1bf1510f5dde","meta":{"profile":["http://hl7.org/fhir/us/qicore/StructureDefinition/qicore-procedure"]},"extension":[{"url":"http://hl7.org/fhir/us/qicore/StructureDefinition/qicore-recorded","valueDateTime":"2013-04-05T09:35:00-04:00"}],"status":"completed","code":{"coding":[{"system":"http://snomed.info/sct","code":"10745001"}]},"subject":{"reference":"Patient/49e30f9d-760a-4227-bbd3-b8d5f7f29189"},"performedDateTime":"2024-02-01T08:00:00.000+00:00"},"request":{"method":"PUT","url":"Procedure/a220a091-54ea-4136-b5df-1bf1510f5dde"}},{"fullUrl":"https://madie.cms.gov/Condition/215cefe2-e5a9-4dee-b2fe-3a93225ebe3f","resource":{"resourceType":"Condition","id":"215cefe2-e5a9-4dee-b2fe-3a93225ebe3f","meta":{"profile":["http://hl7.org/fhir/us/qicore/StructureDefinition/qicore-condition"]},"category":[{"coding":[{"system":"http://terminology.hl7.org/CodeSystem/condition-category","code":"encounter-diagnosis","display":"Encounter Diagnosis"}]}],"code":{"coding":[{"system":"http://hl7.org/fhir/sid/icd-10-cm","version":"2023","code":"A32.7","display":"Listerial sepsis","userSelected":true}]},"subject":{"reference":"Patient/49e30f9d-760a-4227-bbd3-b8d5f7f29189"},"recordedDate":"2024-10-26T08:00:00.000+00:00"},"request":{"method":"PUT","url":"Condition/215cefe2-e5a9-4dee-b2fe-3a93225ebe3f"}},{"fullUrl":"https://madie.cms.gov/Condition/61cb6435-d80f-4e38-a642-0dcb1bdb5830","resource":{"resourceType":"Condition","id":"61cb6435-d80f-4e38-a642-0dcb1bdb5830","meta":{"profile":["http://hl7.org/fhir/us/qicore/StructureDefinition/qicore-condition"]},"category":[{"coding":[{"system":"http://terminology.hl7.org/CodeSystem/condition-category","code":"encounter-diagnosis","display":"Encounter Diagnosis"}]}],"code":{"coding":[{"system":"http://hl7.org/fhir/sid/icd-10-cm","version":"2023","code":"G40.001","display":"Neuromuscular Disease","userSelected":true}]},"subject":{"reference":"Patient/49e30f9d-760a-4227-bbd3-b8d5f7f29189"},"recordedDate":"2024-10-26T08:00:00.000+00:00"},"request":{"method":"PUT","url":"Condition/61cb6435-d80f-4e38-a642-0dcb1bdb5830"}},{"fullUrl":"https://madie.cms.gov/MeasureReport/09a4f84b-90e3-4a12-be85-a7810672b5ec","resource":{"resourceType":"MeasureReport","id":"09a4f84b-90e3-4a12-be85-a7810672b5ec","meta":{"profile":["http://hl7.org/fhir/us/cqfmeasures/StructureDefinition/test-case-cqfm"]},"contained":[{"resourceType":"Parameters","id":"b495dba8-cb94-4a76-94c0-bf57789f5644-parameters","parameter":[{"name":"subject","valueString":"49e30f9d-760a-4227-bbd3-b8d5f7f29189"}]}],"extension":[{"url":"http://hl7.org/fhir/us/cqfmeasures/StructureDefinition/cqfm-inputParameters","valueReference":{"reference":"#b495dba8-cb94-4a76-94c0-bf57789f5644-parameters"}},{"url":"http://hl7.org/fhir/us/cqfmeasures/StructureDefinition/cqfm-testCaseDescription","valueMarkdown":"Risk variable of neuromuscular.\n\n"}],"modifierExtension":[{"url":"http://hl7.org/fhir/us/cqfmeasures/StructureDefinition/cqfm-isTestCase","valueBoolean":true}],"status":"complete","type":"individual","measure":"https://madie.cms.gov/Measure/SevereObstetricComplicationsFHIR","period":{"start":"2024-01-01","end":"2024-12-31"},"group":[{"population":[{"code":{"coding":[{"system":"http://terminology.hl7.org/CodeSystem/measure-population","code":"initial-population","display":"Initial Population"}]},"count":1},{"code":{"coding":[{"system":"http://terminology.hl7.org/CodeSystem/measure-population","code":"denominator","display":"Denominator"}]},"count":1},{"code":{"coding":[{"system":"http://terminology.hl7.org/CodeSystem/measure-population","code":"denominator-exclusion","display":"Denominator Exclusion"}]},"count":0},{"code":{"coding":[{"system":"http://terminology.hl7.org/CodeSystem/measure-population","code":"numerator","display":"Numerator"}]},"count":1}]}],"evaluatedResource":[{"reference":"Patient/49e30f9d-760a-4227-bbd3-b8d5f7f29189"},{"reference":"Observation/66276e55-9209-47c6-94c2-47436c576159"},{"reference":"Observation/ac40ca3a-a44c-470f-957b-416d3301cbd9"},{"reference":"Encounter/547ab067-329b-4830-9a6b-61a0da75e720"},{"reference":"Procedure/a220a091-54ea-4136-b5df-1bf1510f5dde"},{"reference":"Condition/215cefe2-e5a9-4dee-b2fe-3a93225ebe3f"},{"reference":"Condition/61cb6435-d80f-4e38-a642-0dcb1bdb5830"}]},"request":{"method":"PUT","url":"MeasureReport/09a4f84b-90e3-4a12-be85-a7810672b5ec"}}]}