{
  "resourceType": "Bundle",
  "id": "633b3f9e0968f80122503cd1",
  "type": "transaction",
  "entry": [
    {
      "fullUrl": "https://madie.cms.gov/Patient/92cc5bd2-8acf-4045-be9f-ae6833a16835",
      "resource": {
        "resourceType": "Patient",
        "id": "92cc5bd2-8acf-4045-be9f-ae6833a16835",
        "meta": {
          "profile": [
            "http://hl7.org/fhir/us/qicore/StructureDefinition/qicore-patient"
          ]
        },
        "text": {
          "status": "generated",
          "div": "<div xmlns=\"http://www.w3.org/1999/xhtml\"><div class=\"hapiHeaderText\">AssPrfDELRsltDtTime_AftIPStart <b>DENOMFAIL </b></div><table class=\"hapiPropertyTable\"><tbody><tr><td>Date of birth</td><td><span>01 February 2004</span></td></tr></tbody></table></div>"
        },
        "extension": [
          {
            "url": "http://hl7.org/fhir/us/core/StructureDefinition/us-core-race",
            "extension": [
              {
                "url": "ombCategory",
                "valueCoding": {
                  "system": "urn:oid:2.16.840.1.113883.6.238",
                  "code": "1002-5",
                  "display": "American Indian or Alaska Native",
                  "userSelected": true
                }
              },
              {
                "url": "text",
                "valueString": "American Indian or Alaska Native"
              }
            ]
          },
          {
            "url": "http://hl7.org/fhir/us/core/StructureDefinition/us-core-ethnicity",
            "extension": [
              {
                "url": "ombCategory",
                "valueCoding": {
                  "system": "urn:oid:2.16.840.1.113883.6.238",
                  "code": "2135-2",
                  "display": "Hispanic or Latino",
                  "userSelected": true
                }
              },
              {
                "url": "text",
                "valueString": "Hispanic or Latino"
              }
            ]
          }
        ],
        "identifier": [
          {
            "type": {
              "coding": [
                {
                  "system": "http://terminology.hl7.org/CodeSystem/v2-0203",
                  "code": "MR"
                }
              ]
            },
            "system": "https://bonnie-fhir.healthit.gov/",
            "value": "633b3f9e0968f80122503cd1"
          }
        ],
        "active": true,
        "name": [
          {
            "use": "usual",
            "family": "DENOMFail",
            "given": [
              "AssPrfDELRsltDtTime_AftIPStart"
            ]
          }
        ],
        "gender": "female",
        "birthDate": "2004-02-01"
      },
      "request": {
        "method": "PUT",
        "url": "Patient/92cc5bd2-8acf-4045-be9f-ae6833a16835"
      }
    },
    {
      "fullUrl": "https://madie.cms.gov/Observation/2a7da723-9e44-45b9-8f70-3deafb6ed5ce",
      "resource": {
        "resourceType": "Observation",
        "id": "2a7da723-9e44-45b9-8f70-3deafb6ed5ce",
        "meta": {
          "profile": [
            "http://hl7.org/fhir/us/qicore/StructureDefinition/qicore-observation"
          ]
        },
        "status": "final",
        "category": [
          {
            "coding": [
              {
                "system": "http://terminology.hl7.org/CodeSystem/observation-category",
                "code": "exam",
                "display": "exam",
                "userSelected": true
              }
            ]
          }
        ],
        "code": {
          "coding": [
            {
              "system": "http://loinc.org",
              "code": "93857-1"
            }
          ]
        },
        "subject": {
          "reference": "Patient/92cc5bd2-8acf-4045-be9f-ae6833a16835"
        },
        "effectiveDateTime": "2024-02-01T08:00:00.000+00:00",
        "valueDateTime": "2024-02-05T08:16:00+00:00"
      },
      "request": {
        "method": "PUT",
        "url": "Observation/2a7da723-9e44-45b9-8f70-3deafb6ed5ce"
      }
    },
    {
      "fullUrl": "https://madie.cms.gov/Observation/6aa96b54-27d0-4ad5-b315-f41f2ceb8df8",
      "resource": {
        "resourceType": "Observation",
        "id": "6aa96b54-27d0-4ad5-b315-f41f2ceb8df8",
        "meta": {
          "profile": [
            "http://hl7.org/fhir/us/qicore/StructureDefinition/qicore-observation"
          ]
        },
        "status": "final",
        "category": [
          {
            "coding": [
              {
                "system": "http://terminology.hl7.org/CodeSystem/observation-category",
                "code": "exam",
                "display": "exam",
                "userSelected": true
              }
            ]
          }
        ],
        "code": {
          "coding": [
            {
              "system": "http://loinc.org",
              "code": "11778-8"
            }
          ]
        },
        "subject": {
          "reference": "Patient/92cc5bd2-8acf-4045-be9f-ae6833a16835"
        },
        "effectiveDateTime": "2024-02-05T08:00:00.000+00:00",
        "valueDateTime": "2024-02-01T08:00:00.000+00:00"
      },
      "request": {
        "method": "PUT",
        "url": "Observation/6aa96b54-27d0-4ad5-b315-f41f2ceb8df8"
      }
    },
    {
      "fullUrl": "https://madie.cms.gov/Encounter/643a7ef1-ae61-44ae-a365-8b655257fc64",
      "resource": {
        "resourceType": "Encounter",
        "id": "643a7ef1-ae61-44ae-a365-8b655257fc64",
        "meta": {
          "profile": [
            "http://hl7.org/fhir/us/qicore/StructureDefinition/qicore-encounter"
          ]
        },
        "status": "finished",
        "class": {
          "system": "http://terminology.hl7.org/CodeSystem/v3-ActCode",
          "code": "IMP",
          "display": "inpatient encounter"
        },
        "type": [
          {
            "coding": [
              {
                "system": "http://snomed.info/sct",
                "code": "183452005"
              }
            ]
          }
        ],
        "subject": {
          "reference": "Patient/92cc5bd2-8acf-4045-be9f-ae6833a16835"
        },
        "period": {
          "start": "2024-02-01T08:00:00.000Z",
          "end": "2024-02-05T08:15:00.000Z"
        }
      },
      "request": {
        "method": "PUT",
        "url": "Encounter/643a7ef1-ae61-44ae-a365-8b655257fc64"
      }
    },
    {
      "fullUrl": "https://madie.cms.gov/Procedure/901b37a3-857b-4cd9-92a8-41d7f92c3382",
      "resource": {
        "resourceType": "Procedure",
        "id": "901b37a3-857b-4cd9-92a8-41d7f92c3382",
        "meta": {
          "profile": [
            "http://hl7.org/fhir/us/qicore/StructureDefinition/qicore-procedure"
          ]
        },
        "extension": [
          {
            "url": "http://hl7.org/fhir/us/qicore/StructureDefinition/qicore-recorded",
            "valueDateTime": "2013-04-05T09:35:00-04:00"
          }
        ],
        "status": "completed",
        "code": {
          "coding": [
            {
              "system": "http://snomed.info/sct",
              "code": "10745001"
            }
          ]
        },
        "subject": {
          "reference": "Patient/92cc5bd2-8acf-4045-be9f-ae6833a16835"
        },
        "performedPeriod": {
          "start": "2024-02-01T08:00:00.000Z",
          "end": "2024-02-05T08:15:00.000Z"
        }
      },
      "request": {
        "method": "PUT",
        "url": "Procedure/901b37a3-857b-4cd9-92a8-41d7f92c3382"
      }
    },
    {
      "fullUrl": "https://madie.cms.gov/Coverage/48359549-2601-4732-b6d2-aec9f06d74b5",
      "resource": {
        "resourceType": "Coverage",
        "id": "48359549-2601-4732-b6d2-aec9f06d74b5",
        "meta": {
          "profile": [
            "http://hl7.org/fhir/us/qicore/StructureDefinition/qicore-coverage"
          ]
        },
        "status": "active",
        "beneficiary": {
          "reference": "Patient/92cc5bd2-8acf-4045-be9f-ae6833a16835"
        },
        "payor": [
          {
            "reference": "Organization/3c057b73-44af-4816-a69c-f15c752e072e"
          }
        ]
      },
      "request": {
        "method": "PUT",
        "url": "Coverage/48359549-2601-4732-b6d2-aec9f06d74b5"
      }
    },
    {
      "fullUrl": "https://madie.cms.gov/Organization/3c057b73-44af-4816-a69c-f15c752e072e",
      "resource": {
        "resourceType": "Organization",
        "id": "3c057b73-44af-4816-a69c-f15c752e072e",
        "meta": {
          "profile": [
            "http://hl7.org/fhir/us/qicore/StructureDefinition/qicore-organization"
          ]
        },
        "identifier": [
          {
            "use": "temp",
            "system": "urn:oid:2.16.840.1.113883.4.4",
            "value": "21-3259825"
          }
        ],
        "active": true,
        "type": [
          {
            "coding": [
              {
                "system": "http://terminology.hl7.org/CodeSystem/organization-type",
                "code": "pay",
                "display": "Payer"
              }
            ]
          }
        ],
        "name": "Blue Cross Blue Shield of Texas",
        "telecom": [
          {
            "system": "phone",
            "value": "(+1) 972-766-6900"
          }
        ],
        "address": [
          {
            "use": "billing",
            "type": "postal",
            "line": [
              "P.O. Box 660044"
            ],
            "city": "Dallas",
            "state": "TX",
            "postalCode": "75266-0044",
            "country": "USA"
          }
        ]
      },
      "request": {
        "method": "PUT",
        "url": "Organization/3c057b73-44af-4816-a69c-f15c752e072e"
      }
    },
    {
      "fullUrl": "https://madie.cms.gov/Practitioner/264ef163-1492-4223-bd5a-76186659af96",
      "resource": {
        "resourceType": "Practitioner",
        "id": "264ef163-1492-4223-bd5a-76186659af96",
        "identifier": [
          {
            "system": "http://hl7.org/fhir/sid/us-npi",
            "value": "123456"
          }
        ],
        "name": [
          {
            "family": "Evil",
            "prefix": [
              "Dr"
            ]
          }
        ]
      },
      "request": {
        "method": "PUT",
        "url": "Practitioner/264ef163-1492-4223-bd5a-76186659af96"
      }
    },
    {
      "fullUrl": "https://madie.cms.gov/MeasureReport/73064a51-594f-4610-b045-4fb9849fecb2",
      "resource": {
        "resourceType": "MeasureReport",
        "id": "73064a51-594f-4610-b045-4fb9849fecb2",
        "meta": {
          "profile": [
            "http://hl7.org/fhir/us/cqfmeasures/StructureDefinition/test-case-cqfm"
          ]
        },
        "contained": [
          {
            "resourceType": "Parameters",
            "id": "e0807c6d-df5b-43cd-b878-4bf5eb73a856-parameters",
            "parameter": [
              {
                "name": "subject",
                "valueString": "92cc5bd2-8acf-4045-be9f-ae6833a16835"
              }
            ]
          }
        ],
        "extension": [
          {
            "url": "http://hl7.org/fhir/us/cqfmeasures/StructureDefinition/cqfm-inputParameters",
            "valueReference": {
              "reference": "#e0807c6d-df5b-43cd-b878-4bf5eb73a856-parameters"
            }
          },
          {
            "url": "http://hl7.org/fhir/us/cqfmeasures/StructureDefinition/cqfm-testCaseDescription",
            "valueMarkdown": "Result date/Time of delivery (based on assessment performed) is equal to encounter end plus 1 minute\n"
          }
        ],
        "modifierExtension": [
          {
            "url": "http://hl7.org/fhir/us/cqfmeasures/StructureDefinition/cqfm-isTestCase",
            "valueBoolean": true
          }
        ],
        "status": "complete",
        "type": "individual",
        "measure": "https://madie.cms.gov/Measure/SevereObstetricComplicationsFHIR",
        "period": {
          "start": "2024-01-01",
          "end": "2024-12-31"
        },
        "group": [
          {
            "population": [
              {
                "code": {
                  "coding": [
                    {
                      "system": "http://terminology.hl7.org/CodeSystem/measure-population",
                      "code": "initial-population",
                      "display": "Initial Population"
                    }
                  ]
                },
                "count": 1
              },
              {
                "code": {
                  "coding": [
                    {
                      "system": "http://terminology.hl7.org/CodeSystem/measure-population",
                      "code": "denominator",
                      "display": "Denominator"
                    }
                  ]
                },
                "count": 0
              },
              {
                "code": {
                  "coding": [
                    {
                      "system": "http://terminology.hl7.org/CodeSystem/measure-population",
                      "code": "denominator-exclusion",
                      "display": "Denominator Exclusion"
                    }
                  ]
                },
                "count": 0
              },
              {
                "code": {
                  "coding": [
                    {
                      "system": "http://terminology.hl7.org/CodeSystem/measure-population",
                      "code": "numerator",
                      "display": "Numerator"
                    }
                  ]
                },
                "count": 0
              }
            ]
          }
        ],
        "evaluatedResource": [
          {
            "reference": "Patient/92cc5bd2-8acf-4045-be9f-ae6833a16835"
          },
          {
            "reference": "Observation/2a7da723-9e44-45b9-8f70-3deafb6ed5ce"
          },
          {
            "reference": "Observation/6aa96b54-27d0-4ad5-b315-f41f2ceb8df8"
          },
          {
            "reference": "Encounter/643a7ef1-ae61-44ae-a365-8b655257fc64"
          },
          {
            "reference": "Procedure/901b37a3-857b-4cd9-92a8-41d7f92c3382"
          },
          {
            "reference": "Coverage/48359549-2601-4732-b6d2-aec9f06d74b5"
          },
          {
            "reference": "Organization/3c057b73-44af-4816-a69c-f15c752e072e"
          },
          {
            "reference": "Practitioner/264ef163-1492-4223-bd5a-76186659af96"
          }
        ]
      },
      "request": {
        "method": "PUT",
        "url": "MeasureReport/73064a51-594f-4610-b045-4fb9849fecb2"
      }
    }
  ]
}