{
  "resourceType": "Bundle",
  "id": "63530b4c224f3b053967124f",
  "type": "transaction",
  "entry": [
    {
      "fullUrl": "https://madie.cms.gov/Patient/16ff3b66-0208-4a9a-8969-f0b9bd9dd7e0",
      "resource": {
        "resourceType": "Patient",
        "id": "16ff3b66-0208-4a9a-8969-f0b9bd9dd7e0",
        "meta": {
          "profile": [
            "http://hl7.org/fhir/us/qicore/StructureDefinition/qicore-patient"
          ]
        },
        "extension": [
          {
            "url": "http://hl7.org/fhir/us/core/StructureDefinition/us-core-race",
            "extension": [
              {
                "url": "ombCategory",
                "valueCoding": {
                  "system": "urn:oid:2.16.840.1.113883.6.238",
                  "code": "1002-5",
                  "display": "American Indian or Alaska Native",
                  "userSelected": true
                }
              },
              {
                "url": "text",
                "valueString": "American Indian or Alaska Native"
              }
            ]
          },
          {
            "url": "http://hl7.org/fhir/us/core/StructureDefinition/us-core-ethnicity",
            "extension": [
              {
                "url": "ombCategory",
                "valueCoding": {
                  "system": "urn:oid:2.16.840.1.113883.6.238",
                  "code": "2135-2",
                  "display": "Hispanic or Latino",
                  "userSelected": true
                }
              },
              {
                "url": "text",
                "valueString": "Hispanic or Latino"
              }
            ]
          }
        ],
        "identifier": [
          {
            "type": {
              "coding": [
                {
                  "system": "http://terminology.hl7.org/CodeSystem/v2-0203",
                  "code": "MR"
                }
              ]
            },
            "system": "https://bonnie-fhir.healthit.gov/",
            "value": "63530b4c224f3b053967124f"
          }
        ],
        "name": [
          {
            "family": "DENOMPass",
            "given": [
              "LastAssPrfEDDRelvTm42WksB4DELRsltDtTime "
            ]
          }
        ],
        "gender": "female",
        "birthDate": "2000-02-01"
      },
      "request": {
        "method": "PUT",
        "url": "Patient/16ff3b66-0208-4a9a-8969-f0b9bd9dd7e0"
      }
    },
    {
      "fullUrl": "https://madie.cms.gov/Encounter/2b5f0955-5dda-4342-8405-f93a9c7ba6f4",
      "resource": {
        "resourceType": "Encounter",
        "id": "2b5f0955-5dda-4342-8405-f93a9c7ba6f4",
        "meta": {
          "profile": [
            "http://hl7.org/fhir/us/qicore/StructureDefinition/qicore-encounter"
          ]
        },
        "status": "finished",
        "class": {
          "system": "http://terminology.hl7.org/CodeSystem/v3-ActCode",
          "code": "IMP",
          "display": "inpatient encounter"
        },
        "type": [
          {
            "coding": [
              {
                "system": "http://snomed.info/sct",
                "version": "2022-09",
                "code": "183452005",
                "display": "Emergency hospital admission (procedure)",
                "userSelected": true
              }
            ]
          }
        ],
        "subject": {
          "reference": "Patient/16ff3b66-0208-4a9a-8969-f0b9bd9dd7e0"
        },
        "period": {
          "start": "2024-01-30T08:00:00.000+00:00",
          "end": "2024-02-05T08:15:00.000+00:00"
        }
      },
      "request": {
        "method": "PUT",
        "url": "Encounter/2b5f0955-5dda-4342-8405-f93a9c7ba6f4"
      }
    },
    {
      "fullUrl": "https://madie.cms.gov/Procedure/d9b4f189-75b5-4845-9e0b-0f8df707e1f9",
      "resource": {
        "resourceType": "Procedure",
        "id": "d9b4f189-75b5-4845-9e0b-0f8df707e1f9",
        "meta": {
          "profile": [
            "http://hl7.org/fhir/us/qicore/StructureDefinition/qicore-procedure"
          ]
        },
        "extension": [
          {
            "url": "http://hl7.org/fhir/us/qicore/StructureDefinition/qicore-recorded",
            "valueDateTime": "2013-04-05T09:35:00-04:00"
          }
        ],
        "status": "completed",
        "code": {
          "coding": [
            {
              "system": "http://snomed.info/sct",
              "version": "2022-09",
              "code": "10745001",
              "display": "Delivery of transverse presentation (procedure)",
              "userSelected": true
            }
          ]
        },
        "subject": {
          "reference": "Patient/16ff3b66-0208-4a9a-8969-f0b9bd9dd7e0"
        },
        "performedPeriod": {
          "start": "2024-02-01T08:00:00.000+00:00",
          "end": "2024-02-05T08:15:00.000+00:00"
        }
      },
      "request": {
        "method": "PUT",
        "url": "Procedure/d9b4f189-75b5-4845-9e0b-0f8df707e1f9"
      }
    },
    {
      "fullUrl": "https://madie.cms.gov/Observation/9684e261-40b9-426d-ad88-e5ea9a6475b1",
      "resource": {
        "resourceType": "Observation",
        "id": "9684e261-40b9-426d-ad88-e5ea9a6475b1",
        "meta": {
          "profile": [
            "http://hl7.org/fhir/us/qicore/StructureDefinition/qicore-observation"
          ]
        },
        "status": "final",
        "category": [
          {
            "coding": [
              {
                "system": "http://terminology.hl7.org/CodeSystem/observation-category",
                "code": "exam",
                "display": "exam",
                "userSelected": true
              }
            ]
          }
        ],
        "code": {
          "coding": [
            {
              "system": "http://loinc.org",
              "code": "93857-1",
              "display": "Date and time of obstetric delivery",
              "userSelected": true
            }
          ]
        },
        "subject": {
          "reference": "Patient/16ff3b66-0208-4a9a-8969-f0b9bd9dd7e0"
        },
        "effectiveDateTime": "2024-02-01T08:00:00.000+00:00",
        "valueDateTime": "2024-02-01T08:00:00.000+00:00"
      },
      "request": {
        "method": "PUT",
        "url": "Observation/9684e261-40b9-426d-ad88-e5ea9a6475b1"
      }
    },
    {
      "fullUrl": "https://madie.cms.gov/Observation/ddcba567-0910-4444-81ce-dd1a290ca30b",
      "resource": {
        "resourceType": "Observation",
        "id": "ddcba567-0910-4444-81ce-dd1a290ca30b",
        "meta": {
          "profile": [
            "http://hl7.org/fhir/us/qicore/StructureDefinition/qicore-observation"
          ]
        },
        "status": "final",
        "category": [
          {
            "coding": [
              {
                "system": "http://terminology.hl7.org/CodeSystem/observation-category",
                "code": "exam",
                "display": "exam",
                "userSelected": true
              }
            ]
          }
        ],
        "code": {
          "coding": [
            {
              "system": "http://loinc.org",
              "code": "11778-8",
              "display": "Delivery date Estimated",
              "userSelected": true
            }
          ]
        },
        "subject": {
          "reference": "Patient/16ff3b66-0208-4a9a-8969-f0b9bd9dd7e0"
        },
        "effectiveDateTime": "2023-04-13T08:00:00.000+00:00",
        "valueDateTime": "2024-02-01T08:00:00.000+00:00"
      },
      "request": {
        "method": "PUT",
        "url": "Observation/ddcba567-0910-4444-81ce-dd1a290ca30b"
      }
    },
    {
      "fullUrl": "https://madie.cms.gov/Coverage/ad9867bb-d582-477e-9299-8d2cc0bd9871",
      "resource": {
        "resourceType": "Coverage",
        "id": "ad9867bb-d582-477e-9299-8d2cc0bd9871",
        "meta": {
          "profile": [
            "http://hl7.org/fhir/us/qicore/StructureDefinition/qicore-coverage"
          ]
        },
        "status": "active",
        "beneficiary": {
          "reference": "Patient/16ff3b66-0208-4a9a-8969-f0b9bd9dd7e0"
        },
        "payor": [
          {
            "reference": "Organization/6cf2669f-fe62-418d-9f13-4e4e76adf3e9"
          }
        ]
      },
      "request": {
        "method": "PUT",
        "url": "Coverage/ad9867bb-d582-477e-9299-8d2cc0bd9871"
      }
    },
    {
      "fullUrl": "https://madie.cms.gov/Organization/6cf2669f-fe62-418d-9f13-4e4e76adf3e9",
      "resource": {
        "resourceType": "Organization",
        "id": "6cf2669f-fe62-418d-9f13-4e4e76adf3e9",
        "meta": {
          "profile": [
            "http://hl7.org/fhir/us/qicore/StructureDefinition/qicore-organization"
          ]
        },
        "identifier": [
          {
            "use": "temp",
            "system": "urn:oid:2.16.840.1.113883.4.4",
            "value": "21-3259825"
          }
        ],
        "active": true,
        "type": [
          {
            "coding": [
              {
                "system": "http://terminology.hl7.org/CodeSystem/organization-type",
                "code": "pay",
                "display": "Payer"
              }
            ]
          }
        ],
        "name": "Blue Cross Blue Shield of Texas",
        "telecom": [
          {
            "system": "phone",
            "value": "(+1) 972-766-6900"
          }
        ],
        "address": [
          {
            "use": "billing",
            "type": "postal",
            "line": [
              "P.O. Box 660044"
            ],
            "city": "Dallas",
            "state": "TX",
            "postalCode": "75266-0044",
            "country": "USA"
          }
        ]
      },
      "request": {
        "method": "PUT",
        "url": "Organization/6cf2669f-fe62-418d-9f13-4e4e76adf3e9"
      }
    },
    {
      "fullUrl": "https://madie.cms.gov/Practitioner/09013bad-f1b4-46dd-820c-af37216fe4b7",
      "resource": {
        "resourceType": "Practitioner",
        "id": "09013bad-f1b4-46dd-820c-af37216fe4b7",
        "identifier": [
          {
            "system": "http://hl7.org/fhir/sid/us-npi",
            "value": "123456"
          }
        ],
        "name": [
          {
            "family": "Evil",
            "prefix": [
              "Dr"
            ]
          }
        ]
      },
      "request": {
        "method": "PUT",
        "url": "Practitioner/09013bad-f1b4-46dd-820c-af37216fe4b7"
      }
    },
    {
      "fullUrl": "https://madie.cms.gov/MeasureReport/7b03e516-5794-4d66-8ba4-13409fe5c421",
      "resource": {
        "resourceType": "MeasureReport",
        "id": "7b03e516-5794-4d66-8ba4-13409fe5c421",
        "meta": {
          "profile": [
            "http://hl7.org/fhir/us/cqfmeasures/StructureDefinition/test-case-cqfm"
          ]
        },
        "contained": [
          {
            "resourceType": "Parameters",
            "id": "c4c96067-8f7e-4d70-91e2-21ec2d69854b-parameters",
            "parameter": [
              {
                "name": "subject",
                "valueString": "16ff3b66-0208-4a9a-8969-f0b9bd9dd7e0"
              }
            ]
          }
        ],
        "extension": [
          {
            "url": "http://hl7.org/fhir/us/cqfmeasures/StructureDefinition/cqfm-inputParameters",
            "valueReference": {
              "reference": "#c4c96067-8f7e-4d70-91e2-21ec2d69854b-parameters"
            }
          },
          {
            "url": "http://hl7.org/fhir/us/cqfmeasures/StructureDefinition/cqfm-testCaseDescription",
            "valueMarkdown": "Last assessment Performed, Estimated Delivery Date, Relevant time, 42 weeks before Delivery Result Date/Time\n"
          }
        ],
        "modifierExtension": [
          {
            "url": "http://hl7.org/fhir/us/cqfmeasures/StructureDefinition/cqfm-isTestCase",
            "valueBoolean": true
          }
        ],
        "status": "complete",
        "type": "individual",
        "measure": "https://madie.cms.gov/Measure/SevereObstetricComplicationsFHIR",
        "period": {
          "start": "2024-01-01",
          "end": "2024-12-31"
        },
        "group": [
          {
            "population": [
              {
                "code": {
                  "coding": [
                    {
                      "system": "http://terminology.hl7.org/CodeSystem/measure-population",
                      "code": "initial-population",
                      "display": "Initial Population"
                    }
                  ]
                },
                "count": 1
              },
              {
                "code": {
                  "coding": [
                    {
                      "system": "http://terminology.hl7.org/CodeSystem/measure-population",
                      "code": "denominator",
                      "display": "Denominator"
                    }
                  ]
                },
                "count": 1
              },
              {
                "code": {
                  "coding": [
                    {
                      "system": "http://terminology.hl7.org/CodeSystem/measure-population",
                      "code": "denominator-exclusion",
                      "display": "Denominator Exclusion"
                    }
                  ]
                },
                "count": 0
              },
              {
                "code": {
                  "coding": [
                    {
                      "system": "http://terminology.hl7.org/CodeSystem/measure-population",
                      "code": "numerator",
                      "display": "Numerator"
                    }
                  ]
                },
                "count": 0
              }
            ]
          }
        ],
        "evaluatedResource": [
          {
            "reference": "Patient/16ff3b66-0208-4a9a-8969-f0b9bd9dd7e0"
          },
          {
            "reference": "Encounter/2b5f0955-5dda-4342-8405-f93a9c7ba6f4"
          },
          {
            "reference": "Procedure/d9b4f189-75b5-4845-9e0b-0f8df707e1f9"
          },
          {
            "reference": "Observation/9684e261-40b9-426d-ad88-e5ea9a6475b1"
          },
          {
            "reference": "Observation/ddcba567-0910-4444-81ce-dd1a290ca30b"
          },
          {
            "reference": "Coverage/ad9867bb-d582-477e-9299-8d2cc0bd9871"
          },
          {
            "reference": "Organization/6cf2669f-fe62-418d-9f13-4e4e76adf3e9"
          },
          {
            "reference": "Practitioner/09013bad-f1b4-46dd-820c-af37216fe4b7"
          }
        ]
      },
      "request": {
        "method": "PUT",
        "url": "MeasureReport/7b03e516-5794-4d66-8ba4-13409fe5c421"
      }
    }
  ]
}