{
  "resourceType": "Bundle",
  "id": "DENEXPass-HospiceServiceRequestCompleted",
  "type": "transaction",
  "entry": [
    {
      "fullUrl": "https://madie.cms.gov/Patient/7cbad1bc-f699-41b2-b79a-67ba4c4bf58a",
      "resource": {
        "resourceType": "Patient",
        "id": "7cbad1bc-f699-41b2-b79a-67ba4c4bf58a",
        "meta": {
          "profile": [
            "http://hl7.org/fhir/us/qicore/StructureDefinition/qicore-patient"
          ]
        },
        "extension": [
          {
            "url": "http://hl7.org/fhir/us/core/StructureDefinition/us-core-race",
            "extension": [
              {
                "url": "ombCategory",
                "valueCoding": {
                  "system": "urn:oid:2.16.840.1.113883.6.238",
                  "code": "2028-9",
                  "display": "Asian"
                }
              },
              {
                "url": "text",
                "valueString": "Asian"
              }
            ]
          },
          {
            "url": "http://hl7.org/fhir/us/core/StructureDefinition/us-core-ethnicity",
            "extension": [
              {
                "url": "ombCategory",
                "valueCoding": {
                  "system": "urn:oid:2.16.840.1.113883.6.238",
                  "code": "2135-2",
                  "display": "Hispanic or Latino"
                }
              },
              {
                "url": "text",
                "valueString": "Hispanic or Latino"
              }
            ]
          }
        ],
        "identifier": [
          {
            "system": "http://hospital.smarthealthit.org",
            "value": "999999995"
          }
        ],
        "name": [
          {
            "family": "Bertha",
            "given": [
              "Betty"
            ]
          }
        ],
        "gender": "female",
        "birthDate": "2005-01-01"
      },
      "request": {
        "method": "PUT",
        "url": "Patient/7cbad1bc-f699-41b2-b79a-67ba4c4bf58a"
      }
    },
    {
      "fullUrl": "https://madie.cms.gov/Encounter/d099d174-a25c-4ab6-8726-e0429d143816",
      "resource": {
        "resourceType": "Encounter",
        "id": "d099d174-a25c-4ab6-8726-e0429d143816",
        "meta": {
          "profile": [
            "http://hl7.org/fhir/us/qicore/StructureDefinition/qicore-encounter"
          ]
        },
        "status": "finished",
        "class": {
          "system": "http://terminology.hl7.org/CodeSystem/v3-ActCode",
          "code": "AMB",
          "display": "ambulatory"
        },
        "type": [
          {
            "coding": [
              {
                "system": "http://www.ada.org/cdt",
                "code": "D0120",
                "display": "periodic oral evaluation - established patient"
              }
            ]
          }
        ],
        "subject": {
          "reference": "Patient/7cbad1bc-f699-41b2-b79a-67ba4c4bf58a"
        },
        "period": {
          "start": "2025-01-01T00:00:00.000Z",
          "end": "2025-01-01T01:15:00.000Z"
        }
      },
      "request": {
        "method": "PUT",
        "url": "Encounter/d099d174-a25c-4ab6-8726-e0429d143816"
      }
    },
    {
      "fullUrl": "https://madie.cms.gov/ServiceRequest/80ba61fc-fbd3-40fa-8cba-4d5059f5818f",
      "resource": {
        "resourceType": "ServiceRequest",
        "id": "80ba61fc-fbd3-40fa-8cba-4d5059f5818f",
        "meta": {
          "profile": [
            "http://hl7.org/fhir/us/qicore/StructureDefinition/qicore-servicerequest"
          ]
        },
        "status": "completed",
        "intent": "order",
        "category": [
          {
            "coding": [
              {
                "system": "http://snomed.info/sct",
                "code": "387713003",
                "display": "Surgical procedure"
              }
            ]
          }
        ],
        "priority": "routine",
        "code": {
          "coding": [
            {
              "system": "http://snomed.info/sct",
              "code": "385763009",
              "display": "Hospice care (regime/therapy)"
            }
          ]
        },
        "subject": {
          "reference": "Patient/7cbad1bc-f699-41b2-b79a-67ba4c4bf58a"
        },
        "authoredOn": "2025-01-02T00:00:00.000Z",
        "performerType": {
          "coding": [
            {
              "system": "http://snomed.info/sct",
              "code": "405279007",
              "display": "Attending physician (occupation)"
            }
          ]
        }
      },
      "request": {
        "method": "PUT",
        "url": "ServiceRequest/80ba61fc-fbd3-40fa-8cba-4d5059f5818f"
      }
    },
    {
      "fullUrl": "https://madie.cms.gov/MeasureReport/1b750463-007b-4267-8bd6-284b47d5cbbe",
      "resource": {
        "resourceType": "MeasureReport",
        "id": "1b750463-007b-4267-8bd6-284b47d5cbbe",
        "meta": {
          "profile": [
            "http://hl7.org/fhir/us/cqfmeasures/StructureDefinition/test-case-cqfm"
          ]
        },
        "contained": [
          {
            "resourceType": "Parameters",
            "id": "a5d17eff-5346-43aa-81ba-7f3a82d7e0e9-parameters",
            "parameter": [
              {
                "name": "subject",
                "valueString": "7cbad1bc-f699-41b2-b79a-67ba4c4bf58a"
              }
            ]
          }
        ],
        "extension": [
          {
            "url": "http://hl7.org/fhir/us/cqfmeasures/StructureDefinition/cqfm-inputParameters",
            "valueReference": {
              "reference": "#a5d17eff-5346-43aa-81ba-7f3a82d7e0e9-parameters"
            }
          },
          {
            "url": "http://hl7.org/fhir/us/cqfmeasures/StructureDefinition/cqfm-testCaseDescription",
            "valueMarkdown": "Hospice Service Request - For meeting 100% coverage"
          }
        ],
        "modifierExtension": [
          {
            "url": "http://hl7.org/fhir/us/cqfmeasures/StructureDefinition/cqfm-isTestCase",
            "valueBoolean": true
          }
        ],
        "status": "complete",
        "type": "individual",
        "measure": "https://madie.cms.gov/Measure/PrimaryCariesPreventionasOfferedbyDentistsFHIR",
        "period": {
          "start": "2025-01-01",
          "end": "2025-12-31"
        },
        "group": [
          {
            "population": [
              {
                "code": {
                  "coding": [
                    {
                      "system": "http://terminology.hl7.org/CodeSystem/measure-population",
                      "code": "initial-population",
                      "display": "Initial Population"
                    }
                  ]
                },
                "count": 1
              },
              {
                "code": {
                  "coding": [
                    {
                      "system": "http://terminology.hl7.org/CodeSystem/measure-population",
                      "code": "denominator",
                      "display": "Denominator"
                    }
                  ]
                },
                "count": 1
              },
              {
                "code": {
                  "coding": [
                    {
                      "system": "http://terminology.hl7.org/CodeSystem/measure-population",
                      "code": "denominator-exclusion",
                      "display": "Denominator Exclusion"
                    }
                  ]
                },
                "count": 1
              },
              {
                "code": {
                  "coding": [
                    {
                      "system": "http://terminology.hl7.org/CodeSystem/measure-population",
                      "code": "numerator",
                      "display": "Numerator"
                    }
                  ]
                },
                "count": 0
              }
            ]
          }
        ],
        "evaluatedResource": [
          {
            "reference": "Patient/7cbad1bc-f699-41b2-b79a-67ba4c4bf58a"
          },
          {
            "reference": "Encounter/d099d174-a25c-4ab6-8726-e0429d143816"
          },
          {
            "reference": "ServiceRequest/80ba61fc-fbd3-40fa-8cba-4d5059f5818f"
          }
        ]
      },
      "request": {
        "method": "PUT",
        "url": "MeasureReport/1b750463-007b-4267-8bd6-284b47d5cbbe"
      }
    }
  ]
}