{
  "resourceType": "Bundle",
  "id": "633b3fa00968f80122503d1a",
  "type": "transaction",
  "entry": [
    {
      "fullUrl": "https://madie.cms.gov/Patient/836bbf45-50e1-4409-80e8-feb4767887f1",
      "resource": {
        "resourceType": "Patient",
        "id": "836bbf45-50e1-4409-80e8-feb4767887f1",
        "meta": {
          "profile": [
            "http://hl7.org/fhir/us/qicore/StructureDefinition/qicore-patient"
          ]
        },
        "text": {
          "status": "generated",
          "div": "<div xmlns=\"http://www.w3.org/1999/xhtml\"><div class=\"hapiHeaderText\">DelProcRelDtTm1MinAftEncEnd <b>IPPASS </b></div><table class=\"hapiPropertyTable\"><tbody><tr><td>Date of birth</td><td><span>31 January 2004</span></td></tr></tbody></table></div>"
        },
        "extension": [
          {
            "url": "http://hl7.org/fhir/us/core/StructureDefinition/us-core-race",
            "extension": [
              {
                "url": "ombCategory",
                "valueCoding": {
                  "system": "urn:oid:2.16.840.1.113883.6.238",
                  "code": "1002-5",
                  "display": "American Indian or Alaska Native",
                  "userSelected": true
                }
              },
              {
                "url": "text",
                "valueString": "American Indian or Alaska Native"
              }
            ]
          },
          {
            "url": "http://hl7.org/fhir/us/core/StructureDefinition/us-core-ethnicity",
            "extension": [
              {
                "url": "ombCategory",
                "valueCoding": {
                  "system": "urn:oid:2.16.840.1.113883.6.238",
                  "code": "2135-2",
                  "display": "Hispanic or Latino",
                  "userSelected": true
                }
              },
              {
                "url": "text",
                "valueString": "Hispanic or Latino"
              }
            ]
          }
        ],
        "identifier": [
          {
            "type": {
              "coding": [
                {
                  "system": "http://terminology.hl7.org/CodeSystem/v2-0203",
                  "code": "MR"
                }
              ]
            },
            "system": "https://bonnie-fhir.healthit.gov/",
            "value": "633b3fa00968f80122503d1a"
          }
        ],
        "active": true,
        "name": [
          {
            "use": "usual",
            "family": "IPPass",
            "given": [
              "DelProcPerfTm1MinAftEncEnd"
            ]
          }
        ],
        "gender": "female",
        "birthDate": "2004-01-31"
      },
      "request": {
        "method": "PUT",
        "url": "Patient/836bbf45-50e1-4409-80e8-feb4767887f1"
      }
    },
    {
      "fullUrl": "https://madie.cms.gov/Encounter/554f015c-28c9-4cbc-ab02-d84169b6e835",
      "resource": {
        "resourceType": "Encounter",
        "id": "554f015c-28c9-4cbc-ab02-d84169b6e835",
        "meta": {
          "profile": [
            "http://hl7.org/fhir/us/qicore/StructureDefinition/qicore-encounter"
          ]
        },
        "status": "finished",
        "class": {
          "system": "http://terminology.hl7.org/CodeSystem/v3-ActCode",
          "code": "IMP",
          "display": "inpatient encounter"
        },
        "type": [
          {
            "coding": [
              {
                "system": "http://snomed.info/sct",
                "code": "183452005"
              }
            ]
          }
        ],
        "subject": {
          "reference": "Patient/836bbf45-50e1-4409-80e8-feb4767887f1"
        },
        "period": {
          "start": "2024-02-01T09:00:00.000Z",
          "end": "2024-02-05T08:15:00.000Z"
        }
      },
      "request": {
        "method": "PUT",
        "url": "Encounter/554f015c-28c9-4cbc-ab02-d84169b6e835"
      }
    },
    {
      "fullUrl": "https://madie.cms.gov/Procedure/4d35c719-bf7d-456d-9228-7f1809a4d459",
      "resource": {
        "resourceType": "Procedure",
        "id": "4d35c719-bf7d-456d-9228-7f1809a4d459",
        "meta": {
          "profile": [
            "http://hl7.org/fhir/us/qicore/StructureDefinition/qicore-procedure"
          ]
        },
        "extension": [
          {
            "url": "http://hl7.org/fhir/us/qicore/StructureDefinition/qicore-recorded",
            "valueDateTime": "2013-04-05T09:35:00-04:00"
          }
        ],
        "status": "completed",
        "code": {
          "coding": [
            {
              "system": "http://snomed.info/sct",
              "code": "10745001"
            }
          ]
        },
        "subject": {
          "reference": "Patient/836bbf45-50e1-4409-80e8-feb4767887f1"
        },
        "performedDateTime": "2024-02-05T08:16:00.000+00:00"
      },
      "request": {
        "method": "PUT",
        "url": "Procedure/4d35c719-bf7d-456d-9228-7f1809a4d459"
      }
    },
    {
      "fullUrl": "https://madie.cms.gov/Coverage/de1941c2-3422-402f-ad56-32fbc75d0a32",
      "resource": {
        "resourceType": "Coverage",
        "id": "de1941c2-3422-402f-ad56-32fbc75d0a32",
        "meta": {
          "profile": [
            "http://hl7.org/fhir/us/qicore/StructureDefinition/qicore-coverage"
          ]
        },
        "status": "active",
        "beneficiary": {
          "reference": "Patient/836bbf45-50e1-4409-80e8-feb4767887f1"
        },
        "payor": [
          {
            "reference": "Organization/3b381614-788d-48c4-892c-1307d3171008"
          }
        ]
      },
      "request": {
        "method": "PUT",
        "url": "Coverage/de1941c2-3422-402f-ad56-32fbc75d0a32"
      }
    },
    {
      "fullUrl": "https://madie.cms.gov/Organization/3b381614-788d-48c4-892c-1307d3171008",
      "resource": {
        "resourceType": "Organization",
        "id": "3b381614-788d-48c4-892c-1307d3171008",
        "meta": {
          "profile": [
            "http://hl7.org/fhir/us/qicore/StructureDefinition/qicore-organization"
          ]
        },
        "identifier": [
          {
            "use": "temp",
            "system": "urn:oid:2.16.840.1.113883.4.4",
            "value": "21-3259825"
          }
        ],
        "active": true,
        "type": [
          {
            "coding": [
              {
                "system": "http://terminology.hl7.org/CodeSystem/organization-type",
                "code": "pay",
                "display": "Payer"
              }
            ]
          }
        ],
        "name": "Blue Cross Blue Shield of Texas",
        "telecom": [
          {
            "system": "phone",
            "value": "(+1) 972-766-6900"
          }
        ],
        "address": [
          {
            "use": "billing",
            "type": "postal",
            "line": [
              "P.O. Box 660044"
            ],
            "city": "Dallas",
            "state": "TX",
            "postalCode": "75266-0044",
            "country": "USA"
          }
        ]
      },
      "request": {
        "method": "PUT",
        "url": "Organization/3b381614-788d-48c4-892c-1307d3171008"
      }
    },
    {
      "fullUrl": "https://madie.cms.gov/Practitioner/428824a6-3f9c-42a5-9ea7-aca8515b7d57",
      "resource": {
        "resourceType": "Practitioner",
        "id": "428824a6-3f9c-42a5-9ea7-aca8515b7d57",
        "identifier": [
          {
            "system": "http://hl7.org/fhir/sid/us-npi",
            "value": "123456"
          }
        ],
        "name": [
          {
            "family": "Evil",
            "prefix": [
              "Dr"
            ]
          }
        ]
      },
      "request": {
        "method": "PUT",
        "url": "Practitioner/428824a6-3f9c-42a5-9ea7-aca8515b7d57"
      }
    },
    {
      "fullUrl": "https://madie.cms.gov/MeasureReport/5b75ec31-0179-4204-889b-615add9a91e8",
      "resource": {
        "resourceType": "MeasureReport",
        "id": "5b75ec31-0179-4204-889b-615add9a91e8",
        "meta": {
          "profile": [
            "http://hl7.org/fhir/us/cqfmeasures/StructureDefinition/test-case-cqfm"
          ]
        },
        "contained": [
          {
            "resourceType": "Parameters",
            "id": "11581e61-3221-4ad9-97c9-f0cf527a00fd-parameters",
            "parameter": [
              {
                "name": "subject",
                "valueString": "836bbf45-50e1-4409-80e8-feb4767887f1"
              }
            ]
          }
        ],
        "extension": [
          {
            "url": "http://hl7.org/fhir/us/cqfmeasures/StructureDefinition/cqfm-inputParameters",
            "valueReference": {
              "reference": "#11581e61-3221-4ad9-97c9-f0cf527a00fd-parameters"
            }
          },
          {
            "url": "http://hl7.org/fhir/us/cqfmeasures/StructureDefinition/cqfm-testCaseDescription",
            "valueMarkdown": "Delivery Procedure performed date/time = 1 minute after encounter end.  Passes due to \"day of\" logic which was added back in on 6/7/21.\n"
          }
        ],
        "modifierExtension": [
          {
            "url": "http://hl7.org/fhir/us/cqfmeasures/StructureDefinition/cqfm-isTestCase",
            "valueBoolean": true
          }
        ],
        "status": "complete",
        "type": "individual",
        "measure": "https://madie.cms.gov/Measure/SevereObstetricComplicationsFHIR",
        "period": {
          "start": "2024-01-01",
          "end": "2024-12-31"
        },
        "group": [
          {
            "population": [
              {
                "code": {
                  "coding": [
                    {
                      "system": "http://terminology.hl7.org/CodeSystem/measure-population",
                      "code": "initial-population",
                      "display": "Initial Population"
                    }
                  ]
                },
                "count": 1
              },
              {
                "code": {
                  "coding": [
                    {
                      "system": "http://terminology.hl7.org/CodeSystem/measure-population",
                      "code": "denominator",
                      "display": "Denominator"
                    }
                  ]
                },
                "count": 0
              },
              {
                "code": {
                  "coding": [
                    {
                      "system": "http://terminology.hl7.org/CodeSystem/measure-population",
                      "code": "denominator-exclusion",
                      "display": "Denominator Exclusion"
                    }
                  ]
                },
                "count": 0
              },
              {
                "code": {
                  "coding": [
                    {
                      "system": "http://terminology.hl7.org/CodeSystem/measure-population",
                      "code": "numerator",
                      "display": "Numerator"
                    }
                  ]
                },
                "count": 0
              }
            ]
          }
        ],
        "evaluatedResource": [
          {
            "reference": "Patient/836bbf45-50e1-4409-80e8-feb4767887f1"
          },
          {
            "reference": "Encounter/554f015c-28c9-4cbc-ab02-d84169b6e835"
          },
          {
            "reference": "Procedure/4d35c719-bf7d-456d-9228-7f1809a4d459"
          },
          {
            "reference": "Coverage/de1941c2-3422-402f-ad56-32fbc75d0a32"
          },
          {
            "reference": "Organization/3b381614-788d-48c4-892c-1307d3171008"
          },
          {
            "reference": "Practitioner/428824a6-3f9c-42a5-9ea7-aca8515b7d57"
          }
        ]
      },
      "request": {
        "method": "PUT",
        "url": "MeasureReport/5b75ec31-0179-4204-889b-615add9a91e8"
      }
    }
  ]
}