{
  "resourceType": "Bundle",
  "id": "6129132102c62a011f2e5e77",
  "type": "transaction",
  "entry": [
    {
      "fullUrl": "https://madie.cms.gov/Patient/c21a93d1-24c2-4636-b790-6b47d755b90f",
      "resource": {
        "resourceType": "Patient",
        "id": "c21a93d1-24c2-4636-b790-6b47d755b90f",
        "meta": {
          "profile": [
            "http://hl7.org/fhir/us/qicore/StructureDefinition/qicore-patient"
          ]
        },
        "text": {
          "status": "generated",
          "div": "<div xmlns=\"http://www.w3.org/1999/xhtml\"><div class=\"hapiHeaderText\">AntithromboticDuringIP <b>NUMERPASS </b></div><table class=\"hapiPropertyTable\"><tbody><tr><td>Identifier</td><td>ce3fc639833ed1b27db2cfcc7b5bf51d</td></tr><tr><td>Date of birth</td><td><span>31 May 1990</span></td></tr></tbody></table></div>"
        },
        "extension": [
          {
            "url": "http://hl7.org/fhir/us/core/StructureDefinition/us-core-race",
            "extension": [
              {
                "url": "ombCategory",
                "valueCoding": {
                  "system": "urn:oid:2.16.840.1.113883.6.238",
                  "code": "1002-5",
                  "display": "American Indian or Alaska Native",
                  "userSelected": true
                }
              },
              {
                "url": "text",
                "valueString": "American Indian or Alaska Native"
              }
            ]
          },
          {
            "url": "http://hl7.org/fhir/us/core/StructureDefinition/us-core-ethnicity",
            "extension": [
              {
                "url": "ombCategory",
                "valueCoding": {
                  "system": "urn:oid:2.16.840.1.113883.6.238",
                  "code": "2135-2",
                  "display": "Hispanic or Latino",
                  "userSelected": true
                }
              },
              {
                "url": "text",
                "valueString": "Hispanic or Latino"
              }
            ]
          }
        ],
        "identifier": [
          {
            "type": {
              "coding": [
                {
                  "system": "http://terminology.hl7.org/CodeSystem/v2-0203",
                  "code": "MR"
                }
              ]
            },
            "system": "https://bonnie-fhir.healthit.gov/",
            "value": "6129132102c62a011f2e5e77"
          }
        ],
        "active": true,
        "name": [
          {
            "use": "usual",
            "family": "NUMERPass",
            "given": [
              "AntithromboticDuringIP"
            ]
          }
        ],
        "gender": "male",
        "birthDate": "1999-05-31"
      },
      "request": {
        "method": "PUT",
        "url": "Patient/c21a93d1-24c2-4636-b790-6b47d755b90f"
      }
    },
    {
      "fullUrl": "https://madie.cms.gov/Encounter/8ae4b326-3539-4ed1-80ff-65ddfbe26d9b",
      "resource": {
        "resourceType": "Encounter",
        "id": "8ae4b326-3539-4ed1-80ff-65ddfbe26d9b",
        "meta": {
          "profile": [
            "http://hl7.org/fhir/us/qicore/StructureDefinition/qicore-encounter"
          ]
        },
        "status": "finished",
        "class": {
          "system": "http://terminology.hl7.org/CodeSystem/v3-ActCode",
          "code": "IMP",
          "display": "inpatient encounter",
          "userSelected": true
        },
        "type": [
          {
            "coding": [
              {
                "system": "http://snomed.info/sct",
                "code": "32485007"
              }
            ]
          }
        ],
        "subject": {
          "reference": "Patient/c21a93d1-24c2-4636-b790-6b47d755b90f"
        },
        "period": {
          "start": "2025-06-15T09:30:00.000+00:00",
          "end": "2025-10-12T10:30:00.000+00:00"
        },
        "length": {
          "value": 119,
          "unit": "days"
        },
        "diagnosis": [
          {
            "condition": {
              "reference": "Condition/f7162fe5-15c3-4028-a8d9-71a1f492b02d"
            },
            "use": {
              "coding": [
                {
                  "system": "http://terminology.hl7.org/CodeSystem/diagnosis-role",
                  "code": "billing",
                  "display": "Billing"
                }
              ]
            },
            "rank": 1
          }
        ]
      },
      "request": {
        "method": "PUT",
        "url": "Encounter/8ae4b326-3539-4ed1-80ff-65ddfbe26d9b"
      }
    },
    {
      "fullUrl": "https://madie.cms.gov/MedicationRequest/7c754f3d-7501-4803-ad70-03df5fb6a601",
      "resource": {
        "resourceType": "MedicationRequest",
        "id": "7c754f3d-7501-4803-ad70-03df5fb6a601",
        "meta": {
          "profile": [
            "http://hl7.org/fhir/us/qicore/StructureDefinition/qicore-medicationrequest"
          ]
        },
        "status": "active",
        "intent": "order",
        "category": [
          {
            "coding": [
              {
                "system": "http://terminology.hl7.org/CodeSystem/medicationrequest-category",
                "code": "discharge",
                "display": "Discharge",
                "userSelected": true
              }
            ]
          }
        ],
        "medicationCodeableConcept": {
          "coding": [
            {
              "system": "http://www.nlm.nih.gov/research/umls/rxnorm",
              "code": "1037045"
            }
          ]
        },
        "subject": {
          "reference": "Patient/c21a93d1-24c2-4636-b790-6b47d755b90f"
        },
        "authoredOn": "2025-10-10T10:00:00.000+00:00",
        "requester": {
          "reference": "Practitioner/example"
        }
      },
      "request": {
        "method": "PUT",
        "url": "MedicationRequest/7c754f3d-7501-4803-ad70-03df5fb6a601"
      }
    },
    {
      "fullUrl": "https://madie.cms.gov/Condition/f7162fe5-15c3-4028-a8d9-71a1f492b02d",
      "resource": {
        "resourceType": "Condition",
        "id": "f7162fe5-15c3-4028-a8d9-71a1f492b02d",
        "meta": {
          "profile": [
            "http://hl7.org/fhir/us/qicore/StructureDefinition/qicore-condition"
          ]
        },
        "clinicalStatus": {
          "coding": [
            {
              "system": "http://terminology.hl7.org/CodeSystem/condition-clinical",
              "code": "active"
            }
          ]
        },
        "verificationStatus": {
          "coding": [
            {
              "system": "http://terminology.hl7.org/CodeSystem/condition-ver-status",
              "code": "confirmed"
            }
          ]
        },
        "category": [
          {
            "coding": [
              {
                "system": "http://terminology.hl7.org/CodeSystem/condition-category",
                "code": "encounter-diagnosis",
                "display": "Encounter Diagnosis"
              }
            ]
          }
        ],
        "code": {
          "coding": [
            {
              "system": "http://snomed.info/sct",
              "version": "2020-09",
              "code": "111297002",
              "display": "Nonparalytic stroke (disorder)",
              "userSelected": true
            }
          ]
        },
        "subject": {
          "reference": "Patient/c21a93d1-24c2-4636-b790-6b47d755b90f"
        },
        "recordedDate": "2025-07-15T08:00:00.000+00:00"
      },
      "request": {
        "method": "PUT",
        "url": "Condition/f7162fe5-15c3-4028-a8d9-71a1f492b02d"
      }
    },
    {
      "fullUrl": "https://madie.cms.gov/Coverage/38989d9b-6e5f-4964-b071-92da4f557536",
      "resource": {
        "resourceType": "Coverage",
        "id": "38989d9b-6e5f-4964-b071-92da4f557536",
        "meta": {
          "profile": [
            "http://hl7.org/fhir/us/qicore/StructureDefinition/qicore-coverage"
          ]
        },
        "status": "active",
        "beneficiary": {
          "reference": "Patient/c21a93d1-24c2-4636-b790-6b47d755b90f"
        },
        "payor": [
          {
            "reference": "Organization/ea018e98-a86e-471c-affb-2ca0e517bb40"
          }
        ]
      },
      "request": {
        "method": "PUT",
        "url": "Coverage/38989d9b-6e5f-4964-b071-92da4f557536"
      }
    },
    {
      "fullUrl": "https://madie.cms.gov/Organization/ea018e98-a86e-471c-affb-2ca0e517bb40",
      "resource": {
        "resourceType": "Organization",
        "id": "ea018e98-a86e-471c-affb-2ca0e517bb40",
        "meta": {
          "profile": [
            "http://hl7.org/fhir/us/qicore/StructureDefinition/qicore-organization"
          ]
        },
        "identifier": [
          {
            "use": "temp",
            "system": "urn:oid:2.16.840.1.113883.4.4",
            "value": "21-3259825"
          }
        ],
        "active": true,
        "type": [
          {
            "coding": [
              {
                "system": "http://terminology.hl7.org/CodeSystem/organization-type",
                "code": "pay",
                "display": "Payer"
              }
            ]
          }
        ],
        "name": "Blue Cross Blue Shield of Texas",
        "telecom": [
          {
            "system": "phone",
            "value": "(+1) 972-766-6900"
          }
        ],
        "address": [
          {
            "use": "billing",
            "type": "postal",
            "line": [
              "P.O. Box 660044"
            ],
            "city": "Dallas",
            "state": "TX",
            "postalCode": "75266-0044",
            "country": "USA"
          }
        ]
      },
      "request": {
        "method": "PUT",
        "url": "Organization/ea018e98-a86e-471c-affb-2ca0e517bb40"
      }
    },
    {
      "fullUrl": "https://madie.cms.gov/MeasureReport/ec711164-03f2-47ed-b151-1bd647335c24",
      "resource": {
        "resourceType": "MeasureReport",
        "id": "ec711164-03f2-47ed-b151-1bd647335c24",
        "meta": {
          "profile": [
            "http://hl7.org/fhir/us/cqfmeasures/StructureDefinition/test-case-cqfm"
          ]
        },
        "contained": [
          {
            "resourceType": "Parameters",
            "id": "db7edc53-2481-474e-9005-8cd5010c8830-parameters",
            "parameter": [
              {
                "name": "subject",
                "valueString": "c21a93d1-24c2-4636-b790-6b47d755b90f"
              }
            ]
          }
        ],
        "extension": [
          {
            "url": "http://hl7.org/fhir/us/cqfmeasures/StructureDefinition/cqfm-inputParameters",
            "valueReference": {
              "reference": "#db7edc53-2481-474e-9005-8cd5010c8830-parameters"
            }
          },
          {
            "url": "http://hl7.org/fhir/us/cqfmeasures/StructureDefinition/cqfm-testCaseDescription",
            "valueMarkdown": "Patient is GT 18 with Non-Elective Inpatient Encounter (LOS 120 days) with principal diagnosis of ischemic stroke ends during MP received antithrombotic during IP encounter\n"
          }
        ],
        "modifierExtension": [
          {
            "url": "http://hl7.org/fhir/us/cqfmeasures/StructureDefinition/cqfm-isTestCase",
            "valueBoolean": true
          }
        ],
        "status": "complete",
        "type": "individual",
        "measure": "https://madie.cms.gov/Measure/DischargedonAntithromboticTherapyFHIR",
        "period": {
          "start": "2025-01-01",
          "end": "2025-12-31"
        },
        "group": [
          {
            "population": [
              {
                "code": {
                  "coding": [
                    {
                      "system": "http://terminology.hl7.org/CodeSystem/measure-population",
                      "code": "initial-population",
                      "display": "Initial Population"
                    }
                  ]
                },
                "count": 1
              },
              {
                "code": {
                  "coding": [
                    {
                      "system": "http://terminology.hl7.org/CodeSystem/measure-population",
                      "code": "denominator",
                      "display": "Denominator"
                    }
                  ]
                },
                "count": 1
              },
              {
                "code": {
                  "coding": [
                    {
                      "system": "http://terminology.hl7.org/CodeSystem/measure-population",
                      "code": "denominator-exclusion",
                      "display": "Denominator Exclusion"
                    }
                  ]
                },
                "count": 0
              },
              {
                "code": {
                  "coding": [
                    {
                      "system": "http://terminology.hl7.org/CodeSystem/measure-population",
                      "code": "numerator",
                      "display": "Numerator"
                    }
                  ]
                },
                "count": 1
              },
              {
                "code": {
                  "coding": [
                    {
                      "system": "http://terminology.hl7.org/CodeSystem/measure-population",
                      "code": "denominator-exception",
                      "display": "Denominator Exception"
                    }
                  ]
                },
                "count": 0
              }
            ]
          }
        ],
        "evaluatedResource": [
          {
            "reference": "Patient/c21a93d1-24c2-4636-b790-6b47d755b90f"
          },
          {
            "reference": "Encounter/8ae4b326-3539-4ed1-80ff-65ddfbe26d9b"
          },
          {
            "reference": "MedicationRequest/7c754f3d-7501-4803-ad70-03df5fb6a601"
          },
          {
            "reference": "Condition/f7162fe5-15c3-4028-a8d9-71a1f492b02d"
          },
          {
            "reference": "Coverage/38989d9b-6e5f-4964-b071-92da4f557536"
          },
          {
            "reference": "Organization/ea018e98-a86e-471c-affb-2ca0e517bb40"
          }
        ]
      },
      "request": {
        "method": "PUT",
        "url": "MeasureReport/ec711164-03f2-47ed-b151-1bd647335c24"
      }
    }
  ]
}