{
  "resourceType": "Bundle",
  "id": "63598dd9c35f1c19df09adbd",
  "type": "transaction",
  "entry": [
    {
      "fullUrl": "https://madie.cms.gov/Patient/e9b41982-2f9c-4fc3-ac5b-4cbb623842d9",
      "resource": {
        "resourceType": "Patient",
        "id": "e9b41982-2f9c-4fc3-ac5b-4cbb623842d9",
        "meta": {
          "profile": [
            "http://hl7.org/fhir/us/qicore/StructureDefinition/qicore-patient"
          ]
        },
        "text": {
          "status": "generated",
          "div": "<div xmlns=\"http://www.w3.org/1999/xhtml\"><div class=\"hapiHeaderText\">RISKHRRelDtTimeEQDelStart   <b>RISKFail </b></div><table class=\"hapiPropertyTable\"><tbody><tr><td>Date of birth</td><td><span>01 February 2004</span></td></tr></tbody></table></div>"
        },
        "extension": [
          {
            "url": "http://hl7.org/fhir/us/core/StructureDefinition/us-core-race",
            "extension": [
              {
                "url": "ombCategory",
                "valueCoding": {
                  "system": "urn:oid:2.16.840.1.113883.6.238",
                  "code": "1002-5",
                  "display": "American Indian or Alaska Native",
                  "userSelected": true
                }
              },
              {
                "url": "text",
                "valueString": "American Indian or Alaska Native"
              }
            ]
          },
          {
            "url": "http://hl7.org/fhir/us/core/StructureDefinition/us-core-ethnicity",
            "extension": [
              {
                "url": "ombCategory",
                "valueCoding": {
                  "system": "urn:oid:2.16.840.1.113883.6.238",
                  "code": "2135-2",
                  "display": "Hispanic or Latino",
                  "userSelected": true
                }
              },
              {
                "url": "text",
                "valueString": "Hispanic or Latino"
              }
            ]
          }
        ],
        "identifier": [
          {
            "type": {
              "coding": [
                {
                  "system": "http://terminology.hl7.org/CodeSystem/v2-0203",
                  "code": "MR"
                }
              ]
            },
            "system": "https://bonnie-fhir.healthit.gov/",
            "value": "63598dd9c35f1c19df09adbd"
          }
        ],
        "active": true,
        "name": [
          {
            "use": "usual",
            "family": "RiskFail",
            "given": [
              "RISKHRRelDtTimeEQDelStart "
            ]
          }
        ],
        "gender": "female",
        "birthDate": "2004-02-01"
      },
      "request": {
        "method": "PUT",
        "url": "Patient/e9b41982-2f9c-4fc3-ac5b-4cbb623842d9"
      }
    },
    {
      "fullUrl": "https://madie.cms.gov/Observation/054b0812-8c3b-4046-a80d-ac50d4def108",
      "resource": {
        "resourceType": "Observation",
        "id": "054b0812-8c3b-4046-a80d-ac50d4def108",
        "meta": {
          "profile": [
            "http://hl7.org/fhir/us/qicore/StructureDefinition/qicore-observation"
          ]
        },
        "status": "final",
        "category": [
          {
            "coding": [
              {
                "system": "http://terminology.hl7.org/CodeSystem/observation-category",
                "code": "exam",
                "display": "exam",
                "userSelected": true
              }
            ]
          }
        ],
        "code": {
          "coding": [
            {
              "system": "http://loinc.org",
              "code": "93857-1"
            }
          ]
        },
        "subject": {
          "reference": "Patient/e9b41982-2f9c-4fc3-ac5b-4cbb623842d9"
        },
        "effectiveDateTime": "2024-02-01T08:00:00.000+00:00",
        "valueDateTime": "2024-02-01T08:00:00+00:00"
      },
      "request": {
        "method": "PUT",
        "url": "Observation/054b0812-8c3b-4046-a80d-ac50d4def108"
      }
    },
    {
      "fullUrl": "https://madie.cms.gov/Observation/6b1d434d-6719-441b-bf49-ce4a8b07645b",
      "resource": {
        "resourceType": "Observation",
        "id": "6b1d434d-6719-441b-bf49-ce4a8b07645b",
        "meta": {
          "profile": [
            "http://hl7.org/fhir/us/qicore/StructureDefinition/qicore-observation"
          ]
        },
        "status": "final",
        "category": [
          {
            "coding": [
              {
                "system": "http://terminology.hl7.org/CodeSystem/observation-category",
                "code": "exam",
                "display": "exam",
                "userSelected": true
              }
            ]
          }
        ],
        "code": {
          "coding": [
            {
              "system": "http://loinc.org",
              "code": "11884-4"
            }
          ]
        },
        "subject": {
          "reference": "Patient/e9b41982-2f9c-4fc3-ac5b-4cbb623842d9"
        },
        "effectiveDateTime": "2024-02-01T08:00:00.000+00:00",
        "valueQuantity": {
          "value": 21,
          "system": "http://unitsofmeasure.org",
          "code": "wk"
        }
      },
      "request": {
        "method": "PUT",
        "url": "Observation/6b1d434d-6719-441b-bf49-ce4a8b07645b"
      }
    },
    {
      "fullUrl": "https://madie.cms.gov/Encounter/779421dc-13ae-42ab-9466-3c6b33869312",
      "resource": {
        "resourceType": "Encounter",
        "id": "779421dc-13ae-42ab-9466-3c6b33869312",
        "meta": {
          "profile": [
            "http://hl7.org/fhir/us/qicore/StructureDefinition/qicore-encounter"
          ]
        },
        "status": "finished",
        "class": {
          "system": "http://terminology.hl7.org/CodeSystem/v3-ActCode",
          "code": "IMP",
          "display": "inpatient encounter"
        },
        "type": [
          {
            "coding": [
              {
                "system": "http://snomed.info/sct",
                "code": "183452005"
              }
            ]
          }
        ],
        "subject": {
          "reference": "Patient/e9b41982-2f9c-4fc3-ac5b-4cbb623842d9"
        },
        "period": {
          "start": "2024-02-01T08:00:00.000+00:00",
          "end": "2024-02-05T08:15:00.000+00:00"
        }
      },
      "request": {
        "method": "PUT",
        "url": "Encounter/779421dc-13ae-42ab-9466-3c6b33869312"
      }
    },
    {
      "fullUrl": "https://madie.cms.gov/Encounter/9c0edb71-2afe-4436-81e8-fe22496116bd",
      "resource": {
        "resourceType": "Encounter",
        "id": "9c0edb71-2afe-4436-81e8-fe22496116bd",
        "meta": {
          "profile": [
            "http://hl7.org/fhir/us/qicore/StructureDefinition/qicore-encounter"
          ]
        },
        "status": "finished",
        "class": {
          "system": "http://terminology.hl7.org/CodeSystem/v3-ActCode",
          "code": "EMER",
          "display": "emergency"
        },
        "type": [
          {
            "coding": [
              {
                "system": "http://snomed.info/sct",
                "code": "4525004"
              }
            ]
          }
        ],
        "subject": {
          "reference": "Patient/e9b41982-2f9c-4fc3-ac5b-4cbb623842d9"
        },
        "period": {
          "start": "2024-02-01T07:00:00.000+00:00",
          "end": "2024-02-01T07:59:00.000+00:00"
        }
      },
      "request": {
        "method": "PUT",
        "url": "Encounter/9c0edb71-2afe-4436-81e8-fe22496116bd"
      }
    },
    {
      "fullUrl": "https://madie.cms.gov/Procedure/db317bc4-de6f-406b-bf6d-39c5807c79e0",
      "resource": {
        "resourceType": "Procedure",
        "id": "db317bc4-de6f-406b-bf6d-39c5807c79e0",
        "meta": {
          "profile": [
            "http://hl7.org/fhir/us/qicore/StructureDefinition/qicore-procedure"
          ]
        },
        "extension": [
          {
            "url": "http://hl7.org/fhir/us/qicore/StructureDefinition/qicore-recorded",
            "valueDateTime": "2024-02-04T09:35:00-04:00"
          }
        ],
        "status": "completed",
        "code": {
          "coding": [
            {
              "system": "http://snomed.info/sct",
              "code": "10745001"
            }
          ]
        },
        "subject": {
          "reference": "Patient/e9b41982-2f9c-4fc3-ac5b-4cbb623842d9"
        },
        "performedPeriod": {
          "start": "2024-02-01T08:00:00.000+00:00",
          "end": "2024-02-05T08:15:00.000+00:00"
        }
      },
      "request": {
        "method": "PUT",
        "url": "Procedure/db317bc4-de6f-406b-bf6d-39c5807c79e0"
      }
    },
    {
      "fullUrl": "https://madie.cms.gov/Observation/8b5491a2-c13e-4858-8c7c-8950d972a24b",
      "resource": {
        "resourceType": "Observation",
        "id": "8b5491a2-c13e-4858-8c7c-8950d972a24b",
        "meta": {
          "profile": [
            "http://hl7.org/fhir/StructureDefinition/heartrate"
          ]
        },
        "status": "final",
        "category": [
          {
            "coding": [
              {
                "system": "http://terminology.hl7.org/CodeSystem/observation-category",
                "code": "vital-signs",
                "display": "vital-signs",
                "userSelected": true
              }
            ]
          }
        ],
        "code": {
          "coding": [
            {
              "system": "http://loinc.org",
              "version": "2.73",
              "code": "8867-4",
              "display": "Heart Rate"
            }
          ]
        },
        "subject": {
          "reference": "Patient/e9b41982-2f9c-4fc3-ac5b-4cbb623842d9"
        },
        "effectiveDateTime": "2024-02-01T08:00:00.000+00:00",
        "valueQuantity": {
          "value": 85,
          "unit": "/min",
          "system": "http://unitsofmeasure.org",
          "code": "/min"
        }
      },
      "request": {
        "method": "PUT",
        "url": "Observation/8b5491a2-c13e-4858-8c7c-8950d972a24b"
      }
    },
    {
      "fullUrl": "https://madie.cms.gov/MeasureReport/be3b5442-2de5-424f-8df7-2fc4be233d37",
      "resource": {
        "resourceType": "MeasureReport",
        "id": "be3b5442-2de5-424f-8df7-2fc4be233d37",
        "meta": {
          "profile": [
            "http://hl7.org/fhir/us/cqfmeasures/StructureDefinition/test-case-cqfm"
          ]
        },
        "contained": [
          {
            "resourceType": "Parameters",
            "id": "73f6d8f3-261f-457b-ab20-ab036b63c358-parameters",
            "parameter": [
              {
                "name": "subject",
                "valueString": "e9b41982-2f9c-4fc3-ac5b-4cbb623842d9"
              }
            ]
          }
        ],
        "extension": [
          {
            "url": "http://hl7.org/fhir/us/cqfmeasures/StructureDefinition/cqfm-inputParameters",
            "valueReference": {
              "reference": "#73f6d8f3-261f-457b-ab20-ab036b63c358-parameters"
            }
          },
          {
            "url": "http://hl7.org/fhir/us/cqfmeasures/StructureDefinition/cqfm-testCaseDescription",
            "valueMarkdown": "Patient with heart rate relevant date/time = delivery date/time \n"
          }
        ],
        "modifierExtension": [
          {
            "url": "http://hl7.org/fhir/us/cqfmeasures/StructureDefinition/cqfm-isTestCase",
            "valueBoolean": true
          }
        ],
        "status": "complete",
        "type": "individual",
        "measure": "https://madie.cms.gov/Measure/SevereObstetricComplicationsFHIR",
        "period": {
          "start": "2024-01-01",
          "end": "2024-12-31"
        },
        "group": [
          {
            "population": [
              {
                "code": {
                  "coding": [
                    {
                      "system": "http://terminology.hl7.org/CodeSystem/measure-population",
                      "code": "initial-population",
                      "display": "Initial Population"
                    }
                  ]
                },
                "count": 1
              },
              {
                "code": {
                  "coding": [
                    {
                      "system": "http://terminology.hl7.org/CodeSystem/measure-population",
                      "code": "denominator",
                      "display": "Denominator"
                    }
                  ]
                },
                "count": 1
              },
              {
                "code": {
                  "coding": [
                    {
                      "system": "http://terminology.hl7.org/CodeSystem/measure-population",
                      "code": "denominator-exclusion",
                      "display": "Denominator Exclusion"
                    }
                  ]
                },
                "count": 0
              },
              {
                "code": {
                  "coding": [
                    {
                      "system": "http://terminology.hl7.org/CodeSystem/measure-population",
                      "code": "numerator",
                      "display": "Numerator"
                    }
                  ]
                },
                "count": 0
              }
            ]
          }
        ],
        "evaluatedResource": [
          {
            "reference": "Patient/e9b41982-2f9c-4fc3-ac5b-4cbb623842d9"
          },
          {
            "reference": "Observation/054b0812-8c3b-4046-a80d-ac50d4def108"
          },
          {
            "reference": "Observation/6b1d434d-6719-441b-bf49-ce4a8b07645b"
          },
          {
            "reference": "Encounter/779421dc-13ae-42ab-9466-3c6b33869312"
          },
          {
            "reference": "Encounter/9c0edb71-2afe-4436-81e8-fe22496116bd"
          },
          {
            "reference": "Procedure/db317bc4-de6f-406b-bf6d-39c5807c79e0"
          },
          {
            "reference": "Observation/8b5491a2-c13e-4858-8c7c-8950d972a24b"
          }
        ]
      },
      "request": {
        "method": "PUT",
        "url": "MeasureReport/be3b5442-2de5-424f-8df7-2fc4be233d37"
      }
    }
  ]
}