{
  "resourceType": "Bundle",
  "id": "ScreAtriRefNoasseDxNoCp2",
  "type": "transaction",
  "entry": [
    {
      "fullUrl": "https://madie.cms.gov/Patient/00981d75-07e2-4e56-b6df-1275aae40d3e",
      "resource": {
        "resourceType": "Patient",
        "id": "00981d75-07e2-4e56-b6df-1275aae40d3e",
        "meta": {
          "profile": [
            "http://hl7.org/fhir/us/qicore/StructureDefinition/qicore-patient"
          ]
        },
        "text": {
          "status": "generated",
          "div": "<div xmlns=\"http://www.w3.org/1999/xhtml\"><div class=\"hapiHeaderText\">ScreAtriRefNoasseDxNoCp2, , <b> </b></div><table class=\"hapiPropertyTable\"><tbody><tr><td>Identifier</td><td>ScreAtriRefNoasseDxNoCp2</td></tr><tr><td>Date of birth</td><td><span>14 May 1950</span></td></tr></tbody></table></div>"
        },
        "extension": [
          {
            "url": "http://hl7.org/fhir/us/core/StructureDefinition/us-core-race",
            "extension": [
              {
                "url": "ombCategory",
                "valueCoding": {
                  "system": "urn:oid:2.16.840.1.113883.6.238",
                  "code": "2106-3",
                  "display": "White",
                  "userSelected": true
                }
              },
              {
                "url": "text",
                "valueString": "White"
              }
            ]
          },
          {
            "url": "http://hl7.org/fhir/us/core/StructureDefinition/us-core-ethnicity",
            "extension": [
              {
                "url": "ombCategory",
                "valueCoding": {
                  "system": "urn:oid:2.16.840.1.113883.6.238",
                  "code": "2186-5",
                  "display": "Not Hispanic or Latino",
                  "userSelected": true
                }
              },
              {
                "url": "text",
                "valueString": "Not Hispanic or Latino"
              }
            ]
          }
        ],
        "identifier": [
          {
            "type": {
              "coding": [
                {
                  "system": "http://terminology.hl7.org/CodeSystem/v2-0203",
                  "code": "MR"
                }
              ]
            },
            "system": "https://madie.cms.gov/",
            "value": "ScreAtriRefNoasseDxNoCp2"
          }
        ],
        "active": true,
        "name": [
          {
            "use": "usual",
            "text": "ScreAtriRefNoasseDxNoCp2",
            "family": "OCCURPass2",
            "given": [
              "ScreAtriRefNoasseDxNoCp2DENOMPass2"
            ]
          }
        ],
        "gender": "female",
        "birthDate": "1939-01-01",
        "address": [
          {
            "text": "ScreAtriRefNoasseDxNoCp2, Screened Not at risk Assessed Severely Malnourished Diagnosed Care Plan, ID=ScreAtriRefNoasseDxNoCp2, DOB: 14 May 1950"
          }
        ]
      },
      "request": {
        "method": "PUT",
        "url": "Patient/00981d75-07e2-4e56-b6df-1275aae40d3e"
      }
    },
    {
      "fullUrl": "https://madie.cms.gov/Encounter/d82df710-2e90-4a4a-aa7f-33ab144205b4",
      "resource": {
        "resourceType": "Encounter",
        "id": "d82df710-2e90-4a4a-aa7f-33ab144205b4",
        "meta": {
          "profile": [
            "http://hl7.org/fhir/us/qicore/StructureDefinition/qicore-encounter"
          ]
        },
        "status": "finished",
        "class": {
          "system": "http://terminology.hl7.org/CodeSystem/v3-ActCode",
          "code": "IMP",
          "display": "inpatient encounter"
        },
        "type": [
          {
            "coding": [
              {
                "system": "http://snomed.info/sct",
                "code": "183452005"
              }
            ]
          }
        ],
        "subject": {
          "reference": "Patient/00981d75-07e2-4e56-b6df-1275aae40d3e"
        },
        "period": {
          "start": "2026-02-01T08:00:00.000Z",
          "end": "2026-02-07T08:15:00.000Z"
        }
      },
      "request": {
        "method": "PUT",
        "url": "Encounter/d82df710-2e90-4a4a-aa7f-33ab144205b4"
      }
    },
    {
      "fullUrl": "https://madie.cms.gov/Encounter/fe9e3e2e-f5b5-4b07-92c6-2b59c6c79026",
      "resource": {
        "resourceType": "Encounter",
        "id": "fe9e3e2e-f5b5-4b07-92c6-2b59c6c79026",
        "meta": {
          "profile": [
            "http://hl7.org/fhir/us/qicore/StructureDefinition/qicore-encounter"
          ]
        },
        "status": "finished",
        "class": {
          "system": "http://terminology.hl7.org/CodeSystem/v3-ActCode",
          "code": "IMP",
          "display": "emergency department patient visit (procedure)"
        },
        "type": [
          {
            "coding": [
              {
                "system": "http://snomed.info/sct",
                "code": "4525004"
              }
            ]
          }
        ],
        "subject": {
          "reference": "Patient/00981d75-07e2-4e56-b6df-1275aae40d3e"
        },
        "period": {
          "start": "2026-01-20T08:00:00.000Z",
          "end": "2026-02-01T08:00:00.000Z"
        }
      },
      "request": {
        "method": "PUT",
        "url": "Encounter/fe9e3e2e-f5b5-4b07-92c6-2b59c6c79026"
      }
    },
    {
      "fullUrl": "https://madie.cms.gov/Condition/86d33d0a-4b17-4244-8953-fb1fed6eec39",
      "resource": {
        "resourceType": "Condition",
        "id": "86d33d0a-4b17-4244-8953-fb1fed6eec39",
        "meta": {
          "profile": [
            "http://hl7.org/fhir/us/qicore/StructureDefinition/qicore-condition"
          ]
        },
        "clinicalStatus": {
          "coding": [
            {
              "system": "http://terminology.hl7.org/CodeSystem/condition-clinical",
              "code": "active",
              "display": "Active",
              "userSelected": true
            }
          ]
        },
        "verificationStatus": {
          "coding": [
            {
              "system": "http://terminology.hl7.org/CodeSystem/condition-ver-status",
              "code": "confirmed",
              "display": "Confirmed",
              "userSelected": true
            }
          ]
        },
        "category": [
          {
            "coding": [
              {
                "system": "http://terminology.hl7.org/CodeSystem/condition-category",
                "code": "encounter-diagnosis",
                "display": "Encounter Diagnosis",
                "userSelected": true
              }
            ]
          }
        ],
        "code": {
          "coding": [
            {
              "system": "http://hl7.org/fhir/sid/icd-10-cm",
              "code": "T73.0XXA",
              "display": "Starvation, initial encounter",
              "userSelected": true
            }
          ]
        },
        "subject": {
          "reference": "Patient/00981d75-07e2-4e56-b6df-1275aae40d3e"
        },
        "onsetPeriod": {
          "start": "2026-01-22T08:00:00.000+00:00"
        },
        "recordedDate": "2026-01-22T11:00:00.000+00:00"
      },
      "request": {
        "method": "PUT",
        "url": "Condition/86d33d0a-4b17-4244-8953-fb1fed6eec39"
      }
    },
    {
      "fullUrl": "https://madie.cms.gov/Observation/a52b2905-262f-42ff-8384-390a886e7f6b",
      "resource": {
        "resourceType": "Observation",
        "id": "a52b2905-262f-42ff-8384-390a886e7f6b",
        "meta": {
          "profile": [
            "http://hl7.org/fhir/us/qicore/StructureDefinition/qicore-observation"
          ]
        },
        "status": "final",
        "category": [
          {
            "coding": [
              {
                "system": "http://terminology.hl7.org/CodeSystem/observation-category",
                "code": "survey",
                "display": "Survey"
              }
            ]
          }
        ],
        "code": {
          "coding": [
            {
              "system": "http://loinc.org",
              "code": "98967-3",
              "display": "Nutritional Risk Screening 2002 panel",
              "userSelected": true
            }
          ]
        },
        "subject": {
          "reference": "Patient/00981d75-07e2-4e56-b6df-1275aae40d3e"
        },
        "effectiveDateTime": "2026-01-22T09:00:00.000+00:00",
        "valueCodeableConcept": {
          "coding": [
            {
              "system": "http://snomed.info/sct",
              "code": "129689002",
              "display": "At risk for nutritional problem (finding)",
              "userSelected": true
            }
          ]
        }
      },
      "request": {
        "method": "PUT",
        "url": "Observation/a52b2905-262f-42ff-8384-390a886e7f6b"
      }
    },
    {
      "fullUrl": "https://madie.cms.gov/Procedure/02eb203b-071b-4f17-b3ad-1015d0f9ca6a",
      "resource": {
        "resourceType": "Procedure",
        "id": "02eb203b-071b-4f17-b3ad-1015d0f9ca6a",
        "meta": {
          "profile": [
            "http://hl7.org/fhir/us/qicore/StructureDefinition/qicore-procedure"
          ]
        },
        "extension": [
          {
            "url": "http://hl7.org/fhir/us/qicore/StructureDefinition/qicore-recorded",
            "valueDateTime": "2026-01-22T11:30:00.000Z"
          }
        ],
        "status": "completed",
        "code": {
          "coding": [
            {
              "system": "http://snomed.info/sct",
              "code": "306165000",
              "display": "Referral to hospital-based dietetics service (procedure)"
            }
          ],
          "text": "Referral to hospital-based dietetics service (procedure)"
        },
        "subject": {
          "reference": "Patient/00981d75-07e2-4e56-b6df-1275aae40d3e"
        },
        "encounter": {
          "reference": "Encounter/ScreAtriRefNoasseDxNoCp2DENOMPass2"
        },
        "performedPeriod": {
          "start": "2026-01-22T11:30:00.000Z",
          "end": "2026-01-23T08:15:00.000Z"
        }
      },
      "request": {
        "method": "PUT",
        "url": "Procedure/02eb203b-071b-4f17-b3ad-1015d0f9ca6a"
      }
    },
    {
      "fullUrl": "https://madie.cms.gov/Procedure/8a614a77-6902-459b-b25e-d311a8df2db3",
      "resource": {
        "resourceType": "Procedure",
        "id": "8a614a77-6902-459b-b25e-d311a8df2db3",
        "meta": {
          "profile": [
            "http://hl7.org/fhir/us/qicore/StructureDefinition/qicore-procedure"
          ]
        },
        "extension": [
          {
            "url": "http://hl7.org/fhir/us/qicore/StructureDefinition/qicore-recorded",
            "valueDateTime": "2026-02-02T11:30:00.000Z"
          }
        ],
        "status": "completed",
        "code": {
          "coding": [
            {
              "system": "http://snomed.info/sct",
              "code": "1279742004",
              "display": "Development of nutrition care plan (procedure)"
            }
          ],
          "text": "Development of nutrition care plan (procedure)"
        },
        "subject": {
          "reference": "Patient/00981d75-07e2-4e56-b6df-1275aae40d3e"
        },
        "encounter": {
          "reference": "Encounter/ScreAtriRefNoasseDxNoCp2DENOMPass2"
        },
        "performedPeriod": {
          "start": "2026-01-22T11:30:00.000Z",
          "end": "2026-01-24T08:15:00.000Z"
        }
      },
      "request": {
        "method": "PUT",
        "url": "Procedure/8a614a77-6902-459b-b25e-d311a8df2db3"
      }
    },
    {
      "fullUrl": "https://madie.cms.gov/Coverage/81e238d8-14fc-4193-833e-f1504f9e5b4b",
      "resource": {
        "resourceType": "Coverage",
        "id": "81e238d8-14fc-4193-833e-f1504f9e5b4b",
        "meta": {
          "profile": [
            "http://hl7.org/fhir/us/qicore/StructureDefinition/qicore-coverage"
          ]
        },
        "status": "active",
        "type": {
          "coding": [
            {
              "system": "https://nahdo.org/sopt",
              "version": "9.2",
              "code": "11",
              "display": "Medicare Managed Care (Includes Medicare Advantage Plans)"
            }
          ]
        },
        "beneficiary": {
          "reference": "Patient/00981d75-07e2-4e56-b6df-1275aae40d3e"
        },
        "period": {
          "start": "2024-10-01T00:00:00+00:00"
        },
        "payor": [
          {
            "reference": "Organization/fa154155-2b8a-4d97-af1c-aff6150fda7a"
          }
        ]
      },
      "request": {
        "method": "PUT",
        "url": "Coverage/81e238d8-14fc-4193-833e-f1504f9e5b4b"
      }
    },
    {
      "fullUrl": "https://madie.cms.gov/Organization/fa154155-2b8a-4d97-af1c-aff6150fda7a",
      "resource": {
        "resourceType": "Organization",
        "id": "fa154155-2b8a-4d97-af1c-aff6150fda7a",
        "meta": {
          "profile": [
            "http://hl7.org/fhir/us/qicore/StructureDefinition/qicore-organization"
          ]
        },
        "identifier": [
          {
            "use": "temp",
            "system": "urn:oid:2.16.840.1.113883.4.4",
            "value": "21-3259825"
          }
        ],
        "active": true,
        "type": [
          {
            "coding": [
              {
                "system": "http://terminology.hl7.org/CodeSystem/organization-type",
                "code": "pay",
                "display": "Payer"
              }
            ]
          }
        ],
        "name": "Blue Cross Blue Shield of Texas",
        "telecom": [
          {
            "system": "phone",
            "value": "(+1) 972-766-6900"
          }
        ],
        "address": [
          {
            "use": "billing",
            "type": "postal",
            "line": [
              "P.O. Box 660044"
            ],
            "city": "Dallas",
            "state": "TX",
            "postalCode": "75266-0044",
            "country": "USA"
          }
        ]
      },
      "request": {
        "method": "PUT",
        "url": "Organization/fa154155-2b8a-4d97-af1c-aff6150fda7a"
      }
    },
    {
      "fullUrl": "https://madie.cms.gov/MeasureReport/7e196848-6665-4746-9eb5-9c1be0da0093",
      "resource": {
        "resourceType": "MeasureReport",
        "id": "7e196848-6665-4746-9eb5-9c1be0da0093",
        "meta": {
          "profile": [
            "http://hl7.org/fhir/us/cqfmeasures/StructureDefinition/test-case-cqfm"
          ]
        },
        "contained": [
          {
            "resourceType": "Parameters",
            "id": "fc4a4d3d-0ca7-4f89-925b-cf3c52930c77-parameters",
            "parameter": [
              {
                "name": "subject",
                "valueString": "00981d75-07e2-4e56-b6df-1275aae40d3e"
              }
            ]
          }
        ],
        "extension": [
          {
            "url": "http://hl7.org/fhir/us/cqfmeasures/StructureDefinition/cqfm-inputParameters",
            "valueReference": {
              "reference": "#fc4a4d3d-0ca7-4f89-925b-cf3c52930c77-parameters"
            }
          },
          {
            "url": "http://hl7.org/fhir/us/cqfmeasures/StructureDefinition/cqfm-testCaseDescription",
            "valueMarkdown": "Screened, at Risk, Referral, No Assessment, DX, CP, All in ED"
          }
        ],
        "modifierExtension": [
          {
            "url": "http://hl7.org/fhir/us/cqfmeasures/StructureDefinition/cqfm-isTestCase",
            "valueBoolean": true
          }
        ],
        "status": "complete",
        "type": "individual",
        "measure": "https://madie.cms.gov/Measure/GlobalMalnutritionCompositeFHIR",
        "period": {
          "start": "2026-01-01",
          "end": "2026-12-31"
        },
        "group": [
          {
            "population": [
              {
                "code": {
                  "coding": [
                    {
                      "system": "http://terminology.hl7.org/CodeSystem/measure-population",
                      "code": "initial-population",
                      "display": "Initial Population"
                    }
                  ]
                },
                "count": 1
              },
              {
                "code": {
                  "coding": [
                    {
                      "system": "http://terminology.hl7.org/CodeSystem/measure-population",
                      "code": "measure-population",
                      "display": "Measure Population"
                    }
                  ]
                },
                "count": 1
              },
              {
                "code": {
                  "coding": [
                    {
                      "system": "http://terminology.hl7.org/CodeSystem/measure-population",
                      "code": "measure-population-observation",
                      "display": "Measure Population Observation"
                    }
                  ]
                },
                "count": 1
              }
            ]
          },
          {
            "population": [
              {
                "code": {
                  "coding": [
                    {
                      "system": "http://terminology.hl7.org/CodeSystem/measure-population",
                      "code": "initial-population",
                      "display": "Initial Population"
                    }
                  ]
                },
                "count": 1
              },
              {
                "code": {
                  "coding": [
                    {
                      "system": "http://terminology.hl7.org/CodeSystem/measure-population",
                      "code": "measure-population",
                      "display": "Measure Population"
                    }
                  ]
                },
                "count": 1
              },
              {
                "code": {
                  "coding": [
                    {
                      "system": "http://terminology.hl7.org/CodeSystem/measure-population",
                      "code": "measure-population-observation",
                      "display": "Measure Population Observation"
                    }
                  ]
                },
                "count": 0
              }
            ]
          },
          {
            "population": [
              {
                "code": {
                  "coding": [
                    {
                      "system": "http://terminology.hl7.org/CodeSystem/measure-population",
                      "code": "initial-population",
                      "display": "Initial Population"
                    }
                  ]
                },
                "count": 1
              },
              {
                "code": {
                  "coding": [
                    {
                      "system": "http://terminology.hl7.org/CodeSystem/measure-population",
                      "code": "measure-population",
                      "display": "Measure Population"
                    }
                  ]
                },
                "count": 1
              },
              {
                "code": {
                  "coding": [
                    {
                      "system": "http://terminology.hl7.org/CodeSystem/measure-population",
                      "code": "measure-population-observation",
                      "display": "Measure Population Observation"
                    }
                  ]
                },
                "count": 0
              }
            ]
          },
          {
            "population": [
              {
                "code": {
                  "coding": [
                    {
                      "system": "http://terminology.hl7.org/CodeSystem/measure-population",
                      "code": "initial-population",
                      "display": "Initial Population"
                    }
                  ]
                },
                "count": 1
              },
              {
                "code": {
                  "coding": [
                    {
                      "system": "http://terminology.hl7.org/CodeSystem/measure-population",
                      "code": "measure-population",
                      "display": "Measure Population"
                    }
                  ]
                },
                "count": 1
              },
              {
                "code": {
                  "coding": [
                    {
                      "system": "http://terminology.hl7.org/CodeSystem/measure-population",
                      "code": "measure-population-observation",
                      "display": "Measure Population Observation"
                    }
                  ]
                },
                "count": 0
              }
            ]
          },
          {
            "population": [
              {
                "code": {
                  "coding": [
                    {
                      "system": "http://terminology.hl7.org/CodeSystem/measure-population",
                      "code": "initial-population",
                      "display": "Initial Population"
                    }
                  ]
                },
                "count": 1
              },
              {
                "code": {
                  "coding": [
                    {
                      "system": "http://terminology.hl7.org/CodeSystem/measure-population",
                      "code": "measure-population",
                      "display": "Measure Population"
                    }
                  ]
                },
                "count": 1
              },
              {
                "code": {
                  "coding": [
                    {
                      "system": "http://terminology.hl7.org/CodeSystem/measure-population",
                      "code": "measure-population-observation",
                      "display": "Measure Population Observation"
                    }
                  ]
                },
                "count": 1
              }
            ]
          },
          {
            "population": [
              {
                "code": {
                  "coding": [
                    {
                      "system": "http://terminology.hl7.org/CodeSystem/measure-population",
                      "code": "initial-population",
                      "display": "Initial Population"
                    }
                  ]
                },
                "count": 1
              },
              {
                "code": {
                  "coding": [
                    {
                      "system": "http://terminology.hl7.org/CodeSystem/measure-population",
                      "code": "measure-population",
                      "display": "Measure Population"
                    }
                  ]
                },
                "count": 1
              },
              {
                "code": {
                  "coding": [
                    {
                      "system": "http://terminology.hl7.org/CodeSystem/measure-population",
                      "code": "measure-population-observation",
                      "display": "Measure Population Observation"
                    }
                  ]
                },
                "count": 50
              }
            ]
          }
        ],
        "evaluatedResource": [
          {
            "reference": "Patient/00981d75-07e2-4e56-b6df-1275aae40d3e"
          },
          {
            "reference": "Encounter/d82df710-2e90-4a4a-aa7f-33ab144205b4"
          },
          {
            "reference": "Encounter/fe9e3e2e-f5b5-4b07-92c6-2b59c6c79026"
          },
          {
            "reference": "Condition/86d33d0a-4b17-4244-8953-fb1fed6eec39"
          },
          {
            "reference": "Observation/a52b2905-262f-42ff-8384-390a886e7f6b"
          },
          {
            "reference": "Procedure/02eb203b-071b-4f17-b3ad-1015d0f9ca6a"
          },
          {
            "reference": "Procedure/8a614a77-6902-459b-b25e-d311a8df2db3"
          },
          {
            "reference": "Coverage/81e238d8-14fc-4193-833e-f1504f9e5b4b"
          },
          {
            "reference": "Organization/fa154155-2b8a-4d97-af1c-aff6150fda7a"
          }
        ]
      },
      "request": {
        "method": "PUT",
        "url": "MeasureReport/7e196848-6665-4746-9eb5-9c1be0da0093"
      }
    }
  ]
}