{
  "resourceType": "Bundle",
  "id": "6359776b6aee9629c8298235",
  "type": "transaction",
  "entry": [
    {
      "fullUrl": "https://madie.cms.gov/Patient/37b2150d-91bf-4b43-b378-990ec02b6078",
      "resource": {
        "resourceType": "Patient",
        "id": "37b2150d-91bf-4b43-b378-990ec02b6078",
        "meta": {
          "profile": [
            "http://hl7.org/fhir/us/qicore/StructureDefinition/qicore-patient"
          ]
        },
        "text": {
          "status": "generated",
          "div": "<div xmlns=\"http://www.w3.org/1999/xhtml\"><div class=\"hapiHeaderText\">RISKHct24hours1MinB4EDOTTriageEnc  <b>RISKFail </b></div><table class=\"hapiPropertyTable\"><tbody><tr><td>Date of birth</td><td><span>01 February 2004</span></td></tr></tbody></table></div>"
        },
        "extension": [
          {
            "url": "http://hl7.org/fhir/us/core/StructureDefinition/us-core-race",
            "extension": [
              {
                "url": "ombCategory",
                "valueCoding": {
                  "system": "urn:oid:2.16.840.1.113883.6.238",
                  "code": "1002-5",
                  "display": "American Indian or Alaska Native",
                  "userSelected": true
                }
              },
              {
                "url": "text",
                "valueString": "American Indian or Alaska Native"
              }
            ]
          },
          {
            "url": "http://hl7.org/fhir/us/core/StructureDefinition/us-core-ethnicity",
            "extension": [
              {
                "url": "ombCategory",
                "valueCoding": {
                  "system": "urn:oid:2.16.840.1.113883.6.238",
                  "code": "2135-2",
                  "display": "Hispanic or Latino",
                  "userSelected": true
                }
              },
              {
                "url": "text",
                "valueString": "Hispanic or Latino"
              }
            ]
          }
        ],
        "identifier": [
          {
            "type": {
              "coding": [
                {
                  "system": "http://terminology.hl7.org/CodeSystem/v2-0203",
                  "code": "MR"
                }
              ]
            },
            "system": "https://bonnie-fhir.healthit.gov/",
            "value": "6359776b6aee9629c8298235"
          }
        ],
        "active": true,
        "name": [
          {
            "use": "usual",
            "family": "RiskFail",
            "given": [
              "RISKHct24hours1MinB4EDOTTriageEnc"
            ]
          }
        ],
        "gender": "female",
        "birthDate": "2004-02-01"
      },
      "request": {
        "method": "PUT",
        "url": "Patient/37b2150d-91bf-4b43-b378-990ec02b6078"
      }
    },
    {
      "fullUrl": "https://madie.cms.gov/Observation/8553142d-f4e8-4572-bc44-5cb0d07d74b4",
      "resource": {
        "resourceType": "Observation",
        "id": "8553142d-f4e8-4572-bc44-5cb0d07d74b4",
        "meta": {
          "profile": [
            "http://hl7.org/fhir/us/qicore/StructureDefinition/qicore-observation"
          ]
        },
        "status": "final",
        "category": [
          {
            "coding": [
              {
                "system": "http://terminology.hl7.org/CodeSystem/observation-category",
                "code": "exam",
                "display": "exam",
                "userSelected": true
              }
            ]
          }
        ],
        "code": {
          "coding": [
            {
              "system": "http://loinc.org",
              "code": "93857-1"
            }
          ]
        },
        "subject": {
          "reference": "Patient/37b2150d-91bf-4b43-b378-990ec02b6078"
        },
        "effectiveDateTime": "2024-02-01T08:00:00.000+00:00",
        "valueDateTime": "2024-02-01T08:00:00+00:00"
      },
      "request": {
        "method": "PUT",
        "url": "Observation/8553142d-f4e8-4572-bc44-5cb0d07d74b4"
      }
    },
    {
      "fullUrl": "https://madie.cms.gov/Observation/47124411-86db-4175-9be0-b807089642b1",
      "resource": {
        "resourceType": "Observation",
        "id": "47124411-86db-4175-9be0-b807089642b1",
        "meta": {
          "profile": [
            "http://hl7.org/fhir/us/qicore/StructureDefinition/qicore-observation"
          ]
        },
        "status": "final",
        "category": [
          {
            "coding": [
              {
                "system": "http://terminology.hl7.org/CodeSystem/observation-category",
                "code": "exam",
                "display": "exam",
                "userSelected": true
              }
            ]
          }
        ],
        "code": {
          "coding": [
            {
              "system": "http://loinc.org",
              "code": "11884-4"
            }
          ]
        },
        "subject": {
          "reference": "Patient/37b2150d-91bf-4b43-b378-990ec02b6078"
        },
        "effectiveDateTime": "2024-02-01T08:00:00.000+00:00",
        "valueQuantity": {
          "value": 21,
          "system": "http://unitsofmeasure.org",
          "code": "wk"
        }
      },
      "request": {
        "method": "PUT",
        "url": "Observation/47124411-86db-4175-9be0-b807089642b1"
      }
    },
    {
      "fullUrl": "https://madie.cms.gov/Encounter/0f1ff9a1-888c-4c6e-ace2-13022796eb99",
      "resource": {
        "resourceType": "Encounter",
        "id": "0f1ff9a1-888c-4c6e-ace2-13022796eb99",
        "meta": {
          "profile": [
            "http://hl7.org/fhir/us/qicore/StructureDefinition/qicore-encounter"
          ]
        },
        "status": "finished",
        "class": {
          "system": "http://terminology.hl7.org/CodeSystem/v3-ActCode",
          "code": "IMP",
          "display": "inpatient encounter"
        },
        "type": [
          {
            "coding": [
              {
                "system": "http://snomed.info/sct",
                "code": "183452005"
              }
            ]
          }
        ],
        "subject": {
          "reference": "Patient/37b2150d-91bf-4b43-b378-990ec02b6078"
        },
        "period": {
          "start": "2024-02-01T08:00:00.000+00:00",
          "end": "2024-02-05T08:15:00.000+00:00"
        }
      },
      "request": {
        "method": "PUT",
        "url": "Encounter/0f1ff9a1-888c-4c6e-ace2-13022796eb99"
      }
    },
    {
      "fullUrl": "https://madie.cms.gov/Encounter/325f2a92-c54c-4e99-bf10-d2aa252008ae",
      "resource": {
        "resourceType": "Encounter",
        "id": "325f2a92-c54c-4e99-bf10-d2aa252008ae",
        "meta": {
          "profile": [
            "http://hl7.org/fhir/us/qicore/StructureDefinition/qicore-encounter"
          ]
        },
        "status": "finished",
        "class": {
          "system": "http://terminology.hl7.org/CodeSystem/v3-ActCode",
          "code": "EMER",
          "display": "emergency"
        },
        "type": [
          {
            "coding": [
              {
                "system": "http://snomed.info/sct",
                "code": "4525004"
              }
            ]
          }
        ],
        "subject": {
          "reference": "Patient/37b2150d-91bf-4b43-b378-990ec02b6078"
        },
        "period": {
          "start": "2024-02-01T07:00:00.000+00:00",
          "end": "2024-02-01T07:59:00.000+00:00"
        }
      },
      "request": {
        "method": "PUT",
        "url": "Encounter/325f2a92-c54c-4e99-bf10-d2aa252008ae"
      }
    },
    {
      "fullUrl": "https://madie.cms.gov/Procedure/830ec2e1-8f52-4caf-b4df-741652c4cfd6",
      "resource": {
        "resourceType": "Procedure",
        "id": "830ec2e1-8f52-4caf-b4df-741652c4cfd6",
        "meta": {
          "profile": [
            "http://hl7.org/fhir/us/qicore/StructureDefinition/qicore-procedure"
          ]
        },
        "extension": [
          {
            "url": "http://hl7.org/fhir/us/qicore/StructureDefinition/qicore-recorded",
            "valueDateTime": "2024-02-04T09:35:00-04:00"
          }
        ],
        "status": "completed",
        "code": {
          "coding": [
            {
              "system": "http://snomed.info/sct",
              "code": "10745001"
            }
          ]
        },
        "subject": {
          "reference": "Patient/37b2150d-91bf-4b43-b378-990ec02b6078"
        },
        "performedPeriod": {
          "start": "2024-02-01T08:00:00.000+00:00",
          "end": "2024-02-05T08:15:00.000+00:00"
        }
      },
      "request": {
        "method": "PUT",
        "url": "Procedure/830ec2e1-8f52-4caf-b4df-741652c4cfd6"
      }
    },
    {
      "fullUrl": "https://madie.cms.gov/Observation/58b9ab83-78bd-414e-8eca-8da1c88e857c",
      "resource": {
        "resourceType": "Observation",
        "id": "58b9ab83-78bd-414e-8eca-8da1c88e857c",
        "meta": {
          "profile": [
            "http://hl7.org/fhir/us/core/StructureDefinition/us-core-observation-lab"
          ]
        },
        "status": "final",
        "category": [
          {
            "coding": [
              {
                "system": "http://terminology.hl7.org/CodeSystem/observation-category",
                "code": "laboratory",
                "display": "laboratory",
                "userSelected": true
              }
            ]
          }
        ],
        "code": {
          "coding": [
            {
              "system": "http://loinc.org",
              "version": "2.73",
              "code": "20570-8",
              "display": "Hematocrit [Volume Fraction] in Blood",
              "userSelected": true
            }
          ]
        },
        "subject": {
          "reference": "Patient/37b2150d-91bf-4b43-b378-990ec02b6078"
        },
        "effectiveDateTime": "2024-01-31T06:59:00.000+00:00",
        "issued": "2024-01-31T06:59:00.000+00:00",
        "valueQuantity": {
          "value": 20,
          "unit": "%"
        }
      },
      "request": {
        "method": "PUT",
        "url": "Observation/58b9ab83-78bd-414e-8eca-8da1c88e857c"
      }
    },
    {
      "fullUrl": "https://madie.cms.gov/MeasureReport/96409a54-2ca2-4354-8508-7aaa1f2a58a8",
      "resource": {
        "resourceType": "MeasureReport",
        "id": "96409a54-2ca2-4354-8508-7aaa1f2a58a8",
        "meta": {
          "profile": [
            "http://hl7.org/fhir/us/cqfmeasures/StructureDefinition/test-case-cqfm"
          ]
        },
        "contained": [
          {
            "resourceType": "Parameters",
            "id": "cc39d671-635c-4076-b302-ced1c2b76b33-parameters",
            "parameter": [
              {
                "name": "subject",
                "valueString": "37b2150d-91bf-4b43-b378-990ec02b6078"
              }
            ]
          }
        ],
        "extension": [
          {
            "url": "http://hl7.org/fhir/us/cqfmeasures/StructureDefinition/cqfm-inputParameters",
            "valueReference": {
              "reference": "#cc39d671-635c-4076-b302-ced1c2b76b33-parameters"
            }
          },
          {
            "url": "http://hl7.org/fhir/us/cqfmeasures/StructureDefinition/cqfm-testCaseDescription",
            "valueMarkdown": "Patient with hematocrit that starts 24 hours and 1 minute before ED OB Triage encounter.\n"
          }
        ],
        "modifierExtension": [
          {
            "url": "http://hl7.org/fhir/us/cqfmeasures/StructureDefinition/cqfm-isTestCase",
            "valueBoolean": true
          }
        ],
        "status": "complete",
        "type": "individual",
        "measure": "https://madie.cms.gov/Measure/SevereObstetricComplicationsFHIR",
        "period": {
          "start": "2024-01-01",
          "end": "2024-12-31"
        },
        "group": [
          {
            "population": [
              {
                "code": {
                  "coding": [
                    {
                      "system": "http://terminology.hl7.org/CodeSystem/measure-population",
                      "code": "initial-population",
                      "display": "Initial Population"
                    }
                  ]
                },
                "count": 1
              },
              {
                "code": {
                  "coding": [
                    {
                      "system": "http://terminology.hl7.org/CodeSystem/measure-population",
                      "code": "denominator",
                      "display": "Denominator"
                    }
                  ]
                },
                "count": 1
              },
              {
                "code": {
                  "coding": [
                    {
                      "system": "http://terminology.hl7.org/CodeSystem/measure-population",
                      "code": "denominator-exclusion",
                      "display": "Denominator Exclusion"
                    }
                  ]
                },
                "count": 0
              },
              {
                "code": {
                  "coding": [
                    {
                      "system": "http://terminology.hl7.org/CodeSystem/measure-population",
                      "code": "numerator",
                      "display": "Numerator"
                    }
                  ]
                },
                "count": 0
              }
            ]
          }
        ],
        "evaluatedResource": [
          {
            "reference": "Patient/37b2150d-91bf-4b43-b378-990ec02b6078"
          },
          {
            "reference": "Observation/8553142d-f4e8-4572-bc44-5cb0d07d74b4"
          },
          {
            "reference": "Observation/47124411-86db-4175-9be0-b807089642b1"
          },
          {
            "reference": "Encounter/0f1ff9a1-888c-4c6e-ace2-13022796eb99"
          },
          {
            "reference": "Encounter/325f2a92-c54c-4e99-bf10-d2aa252008ae"
          },
          {
            "reference": "Procedure/830ec2e1-8f52-4caf-b4df-741652c4cfd6"
          },
          {
            "reference": "Observation/58b9ab83-78bd-414e-8eca-8da1c88e857c"
          }
        ]
      },
      "request": {
        "method": "PUT",
        "url": "MeasureReport/96409a54-2ca2-4354-8508-7aaa1f2a58a8"
      }
    }
  ]
}