{
  "resourceType": "Bundle",
  "id": "633b3f9f0968f80122503cde",
  "type": "transaction",
  "entry": [
    {
      "fullUrl": "https://madie.cms.gov/Patient/e517ad0d-357e-4ae3-a5e8-b352a07b1e7e",
      "resource": {
        "resourceType": "Patient",
        "id": "e517ad0d-357e-4ae3-a5e8-b352a07b1e7e",
        "meta": {
          "profile": [
            "http://hl7.org/fhir/us/qicore/StructureDefinition/qicore-patient"
          ]
        },
        "text": {
          "status": "generated",
          "div": "<div xmlns=\"http://www.w3.org/1999/xhtml\"><div class=\"hapiHeaderText\">LastAssPrfEGARelvTm_00Hr00Min00Sec_EQLastTmDELRsltDtTime <b>DENOMPASS </b></div><table class=\"hapiPropertyTable\"><tbody><tr><td>Date of birth</td><td><span>01 February 2004</span></td></tr></tbody></table></div>"
        },
        "extension": [
          {
            "url": "http://hl7.org/fhir/us/core/StructureDefinition/us-core-race",
            "extension": [
              {
                "url": "ombCategory",
                "valueCoding": {
                  "system": "urn:oid:2.16.840.1.113883.6.238",
                  "code": "1002-5",
                  "display": "American Indian or Alaska Native",
                  "userSelected": true
                }
              },
              {
                "url": "text",
                "valueString": "American Indian or Alaska Native"
              }
            ]
          },
          {
            "url": "http://hl7.org/fhir/us/core/StructureDefinition/us-core-ethnicity",
            "extension": [
              {
                "url": "ombCategory",
                "valueCoding": {
                  "system": "urn:oid:2.16.840.1.113883.6.238",
                  "code": "2135-2",
                  "display": "Hispanic or Latino",
                  "userSelected": true
                }
              },
              {
                "url": "text",
                "valueString": "Hispanic or Latino"
              }
            ]
          }
        ],
        "identifier": [
          {
            "type": {
              "coding": [
                {
                  "system": "http://terminology.hl7.org/CodeSystem/v2-0203",
                  "code": "MR"
                }
              ]
            },
            "system": "https://bonnie-fhir.healthit.gov/",
            "value": "633b3f9f0968f80122503cde"
          }
        ],
        "active": true,
        "name": [
          {
            "use": "usual",
            "family": "DENOMPass",
            "given": [
              "LastAssPrfEGARelvTm_00Hr00Min00Sec_EQLastTmDELRsltDtTime"
            ]
          }
        ],
        "gender": "female",
        "birthDate": "2004-02-01"
      },
      "request": {
        "method": "PUT",
        "url": "Patient/e517ad0d-357e-4ae3-a5e8-b352a07b1e7e"
      }
    },
    {
      "fullUrl": "https://madie.cms.gov/Observation/c46e1482-8bab-4e1b-b3e4-e01a619d00cf",
      "resource": {
        "resourceType": "Observation",
        "id": "c46e1482-8bab-4e1b-b3e4-e01a619d00cf",
        "meta": {
          "profile": [
            "http://hl7.org/fhir/us/qicore/StructureDefinition/qicore-observation"
          ]
        },
        "status": "final",
        "category": [
          {
            "coding": [
              {
                "system": "http://terminology.hl7.org/CodeSystem/observation-category",
                "code": "exam",
                "display": "exam",
                "userSelected": true
              }
            ]
          }
        ],
        "code": {
          "coding": [
            {
              "system": "http://loinc.org",
              "code": "93857-1"
            }
          ]
        },
        "subject": {
          "reference": "Patient/e517ad0d-357e-4ae3-a5e8-b352a07b1e7e"
        },
        "effectiveDateTime": "2024-02-01T08:00:00.000+00:00",
        "valueDateTime": "2024-02-01T08:00:00+00:00"
      },
      "request": {
        "method": "PUT",
        "url": "Observation/c46e1482-8bab-4e1b-b3e4-e01a619d00cf"
      }
    },
    {
      "fullUrl": "https://madie.cms.gov/Observation/030d8842-2495-48f3-9cb8-7c60266092c8",
      "resource": {
        "resourceType": "Observation",
        "id": "030d8842-2495-48f3-9cb8-7c60266092c8",
        "meta": {
          "profile": [
            "http://hl7.org/fhir/us/qicore/StructureDefinition/qicore-observation"
          ]
        },
        "status": "final",
        "category": [
          {
            "coding": [
              {
                "system": "http://terminology.hl7.org/CodeSystem/observation-category",
                "code": "exam",
                "display": "exam",
                "userSelected": true
              }
            ]
          }
        ],
        "code": {
          "coding": [
            {
              "system": "http://loinc.org",
              "code": "11778-8"
            }
          ]
        },
        "subject": {
          "reference": "Patient/e517ad0d-357e-4ae3-a5e8-b352a07b1e7e"
        },
        "effectiveDateTime": "2024-02-01T08:00:00.000+00:00",
        "valueDateTime": "2024-02-01T08:00:00.000+00:00"
      },
      "request": {
        "method": "PUT",
        "url": "Observation/030d8842-2495-48f3-9cb8-7c60266092c8"
      }
    },
    {
      "fullUrl": "https://madie.cms.gov/Encounter/f5f46580-c574-401d-81da-8cd13d7e2d06",
      "resource": {
        "resourceType": "Encounter",
        "id": "f5f46580-c574-401d-81da-8cd13d7e2d06",
        "meta": {
          "profile": [
            "http://hl7.org/fhir/us/qicore/StructureDefinition/qicore-encounter"
          ]
        },
        "status": "finished",
        "class": {
          "system": "http://terminology.hl7.org/CodeSystem/v3-ActCode",
          "code": "IMP",
          "display": "inpatient encounter"
        },
        "type": [
          {
            "coding": [
              {
                "system": "http://snomed.info/sct",
                "code": "183452005"
              }
            ]
          }
        ],
        "subject": {
          "reference": "Patient/e517ad0d-357e-4ae3-a5e8-b352a07b1e7e"
        },
        "period": {
          "start": "2024-02-01T08:00:00.000Z",
          "end": "2024-02-05T08:15:00.000Z"
        }
      },
      "request": {
        "method": "PUT",
        "url": "Encounter/f5f46580-c574-401d-81da-8cd13d7e2d06"
      }
    },
    {
      "fullUrl": "https://madie.cms.gov/Procedure/ce839152-473f-4d28-93bd-0dd6a222c02b",
      "resource": {
        "resourceType": "Procedure",
        "id": "ce839152-473f-4d28-93bd-0dd6a222c02b",
        "meta": {
          "profile": [
            "http://hl7.org/fhir/us/qicore/StructureDefinition/qicore-procedure"
          ]
        },
        "extension": [
          {
            "url": "http://hl7.org/fhir/us/qicore/StructureDefinition/qicore-recorded",
            "valueDateTime": "2013-04-05T09:35:00-04:00"
          }
        ],
        "status": "completed",
        "code": {
          "coding": [
            {
              "system": "http://snomed.info/sct",
              "code": "10745001"
            }
          ]
        },
        "subject": {
          "reference": "Patient/e517ad0d-357e-4ae3-a5e8-b352a07b1e7e"
        },
        "performedPeriod": {
          "start": "2024-02-01T08:00:00.000Z",
          "end": "2024-02-05T08:15:00.000Z"
        }
      },
      "request": {
        "method": "PUT",
        "url": "Procedure/ce839152-473f-4d28-93bd-0dd6a222c02b"
      }
    },
    {
      "fullUrl": "https://madie.cms.gov/Coverage/2d241c83-9a20-4d25-ab9d-aefa6b63841d",
      "resource": {
        "resourceType": "Coverage",
        "id": "2d241c83-9a20-4d25-ab9d-aefa6b63841d",
        "meta": {
          "profile": [
            "http://hl7.org/fhir/us/qicore/StructureDefinition/qicore-coverage"
          ]
        },
        "status": "active",
        "beneficiary": {
          "reference": "Patient/e517ad0d-357e-4ae3-a5e8-b352a07b1e7e"
        },
        "payor": [
          {
            "reference": "Organization/6d97c645-60c1-408e-bfd9-9b31af888441"
          }
        ]
      },
      "request": {
        "method": "PUT",
        "url": "Coverage/2d241c83-9a20-4d25-ab9d-aefa6b63841d"
      }
    },
    {
      "fullUrl": "https://madie.cms.gov/Organization/6d97c645-60c1-408e-bfd9-9b31af888441",
      "resource": {
        "resourceType": "Organization",
        "id": "6d97c645-60c1-408e-bfd9-9b31af888441",
        "meta": {
          "profile": [
            "http://hl7.org/fhir/us/qicore/StructureDefinition/qicore-organization"
          ]
        },
        "identifier": [
          {
            "use": "temp",
            "system": "urn:oid:2.16.840.1.113883.4.4",
            "value": "21-3259825"
          }
        ],
        "active": true,
        "type": [
          {
            "coding": [
              {
                "system": "http://terminology.hl7.org/CodeSystem/organization-type",
                "code": "pay",
                "display": "Payer"
              }
            ]
          }
        ],
        "name": "Blue Cross Blue Shield of Texas",
        "telecom": [
          {
            "system": "phone",
            "value": "(+1) 972-766-6900"
          }
        ],
        "address": [
          {
            "use": "billing",
            "type": "postal",
            "line": [
              "P.O. Box 660044"
            ],
            "city": "Dallas",
            "state": "TX",
            "postalCode": "75266-0044",
            "country": "USA"
          }
        ]
      },
      "request": {
        "method": "PUT",
        "url": "Organization/6d97c645-60c1-408e-bfd9-9b31af888441"
      }
    },
    {
      "fullUrl": "https://madie.cms.gov/Practitioner/e03a8d48-9483-4b77-8638-fd804b9135f5",
      "resource": {
        "resourceType": "Practitioner",
        "id": "e03a8d48-9483-4b77-8638-fd804b9135f5",
        "identifier": [
          {
            "system": "http://hl7.org/fhir/sid/us-npi",
            "value": "123456"
          }
        ],
        "name": [
          {
            "family": "Evil",
            "prefix": [
              "Dr"
            ]
          }
        ]
      },
      "request": {
        "method": "PUT",
        "url": "Practitioner/e03a8d48-9483-4b77-8638-fd804b9135f5"
      }
    },
    {
      "fullUrl": "https://madie.cms.gov/MeasureReport/2db7c619-47e5-4d62-bfdd-9c766541c387",
      "resource": {
        "resourceType": "MeasureReport",
        "id": "2db7c619-47e5-4d62-bfdd-9c766541c387",
        "meta": {
          "profile": [
            "http://hl7.org/fhir/us/cqfmeasures/StructureDefinition/test-case-cqfm"
          ]
        },
        "contained": [
          {
            "resourceType": "Parameters",
            "id": "fec30655-2b94-46f0-b7b5-6afd0b80acd9-parameters",
            "parameter": [
              {
                "name": "subject",
                "valueString": "e517ad0d-357e-4ae3-a5e8-b352a07b1e7e"
              }
            ]
          }
        ],
        "extension": [
          {
            "url": "http://hl7.org/fhir/us/cqfmeasures/StructureDefinition/cqfm-inputParameters",
            "valueReference": {
              "reference": "#fec30655-2b94-46f0-b7b5-6afd0b80acd9-parameters"
            }
          },
          {
            "url": "http://hl7.org/fhir/us/cqfmeasures/StructureDefinition/cqfm-testCaseDescription",
            "valueMarkdown": "Last assessment Performed, Estimated Delivery Date, Relevant time equal to  Delivery Result Date/Time\n"
          }
        ],
        "modifierExtension": [
          {
            "url": "http://hl7.org/fhir/us/cqfmeasures/StructureDefinition/cqfm-isTestCase",
            "valueBoolean": true
          }
        ],
        "status": "complete",
        "type": "individual",
        "measure": "https://madie.cms.gov/Measure/SevereObstetricComplicationsFHIR",
        "period": {
          "start": "2024-01-01",
          "end": "2024-12-31"
        },
        "group": [
          {
            "population": [
              {
                "code": {
                  "coding": [
                    {
                      "system": "http://terminology.hl7.org/CodeSystem/measure-population",
                      "code": "initial-population",
                      "display": "Initial Population"
                    }
                  ]
                },
                "count": 1
              },
              {
                "code": {
                  "coding": [
                    {
                      "system": "http://terminology.hl7.org/CodeSystem/measure-population",
                      "code": "denominator",
                      "display": "Denominator"
                    }
                  ]
                },
                "count": 1
              },
              {
                "code": {
                  "coding": [
                    {
                      "system": "http://terminology.hl7.org/CodeSystem/measure-population",
                      "code": "denominator-exclusion",
                      "display": "Denominator Exclusion"
                    }
                  ]
                },
                "count": 0
              },
              {
                "code": {
                  "coding": [
                    {
                      "system": "http://terminology.hl7.org/CodeSystem/measure-population",
                      "code": "numerator",
                      "display": "Numerator"
                    }
                  ]
                },
                "count": 0
              }
            ]
          }
        ],
        "evaluatedResource": [
          {
            "reference": "Patient/e517ad0d-357e-4ae3-a5e8-b352a07b1e7e"
          },
          {
            "reference": "Observation/c46e1482-8bab-4e1b-b3e4-e01a619d00cf"
          },
          {
            "reference": "Observation/030d8842-2495-48f3-9cb8-7c60266092c8"
          },
          {
            "reference": "Encounter/f5f46580-c574-401d-81da-8cd13d7e2d06"
          },
          {
            "reference": "Procedure/ce839152-473f-4d28-93bd-0dd6a222c02b"
          },
          {
            "reference": "Coverage/2d241c83-9a20-4d25-ab9d-aefa6b63841d"
          },
          {
            "reference": "Organization/6d97c645-60c1-408e-bfd9-9b31af888441"
          },
          {
            "reference": "Practitioner/e03a8d48-9483-4b77-8638-fd804b9135f5"
          }
        ]
      },
      "request": {
        "method": "PUT",
        "url": "MeasureReport/2db7c619-47e5-4d62-bfdd-9c766541c387"
      }
    }
  ]
}