{
  "resourceType": "Bundle",
  "id": "Not65",
  "type": "transaction",
  "entry": [
    {
      "fullUrl": "https://madie.cms.gov/Patient/1d159e8d-6e29-4dd8-82fa-df5b499c9215",
      "resource": {
        "resourceType": "Patient",
        "id": "1d159e8d-6e29-4dd8-82fa-df5b499c9215",
        "meta": {
          "profile": [
            "http://hl7.org/fhir/us/qicore/StructureDefinition/qicore-patient"
          ]
        },
        "text": {
          "status": "generated",
          "div": "<div xmlns=\"http://www.w3.org/1999/xhtml\"><div class=\"hapiHeaderText\">Not65, Screened Not at risk Assessed Severely Malnourished Diagnosed Care Plan, <b>mo1111d4p100 </b></div><table class=\"hapiPropertyTable\"><tbody><tr><td>Identifier</td><td>Not65</td></tr><tr><td>Date of birth</td><td><span>14 May 1950</span></td></tr></tbody></table></div>"
        },
        "extension": [
          {
            "url": "http://hl7.org/fhir/us/core/StructureDefinition/us-core-race",
            "extension": [
              {
                "url": "ombCategory",
                "valueCoding": {
                  "system": "urn:oid:2.16.840.1.113883.6.238",
                  "code": "2106-3",
                  "display": "White",
                  "userSelected": true
                }
              },
              {
                "url": "text",
                "valueString": "White"
              }
            ]
          },
          {
            "url": "http://hl7.org/fhir/us/core/StructureDefinition/us-core-ethnicity",
            "extension": [
              {
                "url": "ombCategory",
                "valueCoding": {
                  "system": "urn:oid:2.16.840.1.113883.6.238",
                  "code": "2186-5",
                  "display": "Not Hispanic or Latino",
                  "userSelected": true
                }
              },
              {
                "url": "text",
                "valueString": "Not Hispanic or Latino"
              }
            ]
          }
        ],
        "identifier": [
          {
            "type": {
              "coding": [
                {
                  "system": "http://terminology.hl7.org/CodeSystem/v2-0203",
                  "code": "MR"
                }
              ]
            },
            "system": "https://madie.cms.gov/",
            "value": "Not65"
          }
        ],
        "active": true,
        "name": [
          {
            "use": "usual",
            "text": "Not65",
            "family": "IPPFAIL",
            "given": [
              "Not65IPPFAIL"
            ]
          }
        ],
        "gender": "male",
        "birthDate": "1969-06-14",
        "address": [
          {
            "text": "Not65, Screened Not at risk Assessed Severely Malnourished Diagnosed Care Plan, ID=Not65, DOB: 14 May 1950"
          }
        ]
      },
      "request": {
        "method": "PUT",
        "url": "Patient/1d159e8d-6e29-4dd8-82fa-df5b499c9215"
      }
    },
    {
      "fullUrl": "https://madie.cms.gov/Encounter/49edd25d-2193-4ae7-8424-0f11d04456c2",
      "resource": {
        "resourceType": "Encounter",
        "id": "49edd25d-2193-4ae7-8424-0f11d04456c2",
        "meta": {
          "profile": [
            "http://hl7.org/fhir/us/qicore/StructureDefinition/qicore-encounter"
          ]
        },
        "status": "finished",
        "class": {
          "system": "http://terminology.hl7.org/CodeSystem/v3-ActCode",
          "code": "IMP",
          "display": "inpatient encounter"
        },
        "type": [
          {
            "coding": [
              {
                "system": "http://snomed.info/sct",
                "code": "183452005"
              }
            ]
          }
        ],
        "subject": {
          "reference": "Patient/1d159e8d-6e29-4dd8-82fa-df5b499c9215"
        },
        "period": {
          "start": "2026-02-01T08:00:00.000Z",
          "end": "2026-02-07T08:15:00.000Z"
        }
      },
      "request": {
        "method": "PUT",
        "url": "Encounter/49edd25d-2193-4ae7-8424-0f11d04456c2"
      }
    },
    {
      "fullUrl": "https://madie.cms.gov/Condition/18bd5e0c-94d1-4183-a3a5-f0fefe9124b8",
      "resource": {
        "resourceType": "Condition",
        "id": "18bd5e0c-94d1-4183-a3a5-f0fefe9124b8",
        "meta": {
          "profile": [
            "http://hl7.org/fhir/us/qicore/StructureDefinition/qicore-condition"
          ]
        },
        "clinicalStatus": {
          "coding": [
            {
              "system": "http://terminology.hl7.org/CodeSystem/condition-clinical",
              "code": "active",
              "display": "Active",
              "userSelected": true
            }
          ]
        },
        "verificationStatus": {
          "coding": [
            {
              "system": "http://terminology.hl7.org/CodeSystem/condition-ver-status",
              "code": "confirmed",
              "display": "Confirmed",
              "userSelected": true
            }
          ]
        },
        "category": [
          {
            "coding": [
              {
                "system": "http://terminology.hl7.org/CodeSystem/condition-category",
                "code": "encounter-diagnosis",
                "display": "Encounter Diagnosis",
                "userSelected": true
              }
            ]
          }
        ],
        "code": {
          "coding": [
            {
              "system": "http://snomed.info/sct",
              "code": "190606006",
              "display": "Moderate protein energy malnutrition (disorder)",
              "userSelected": true
            }
          ]
        },
        "subject": {
          "reference": "Patient/1d159e8d-6e29-4dd8-82fa-df5b499c9215"
        },
        "onsetPeriod": {
          "start": "2026-02-01T08:00:00.000+00:00"
        },
        "recordedDate": "2026-02-01T11:00:00.000+00:00"
      },
      "request": {
        "method": "PUT",
        "url": "Condition/18bd5e0c-94d1-4183-a3a5-f0fefe9124b8"
      }
    },
    {
      "fullUrl": "https://madie.cms.gov/Observation/fa930645-de1b-42ae-8c2e-ca22609e1a5c",
      "resource": {
        "resourceType": "Observation",
        "id": "fa930645-de1b-42ae-8c2e-ca22609e1a5c",
        "meta": {
          "profile": [
            "http://hl7.org/fhir/us/qicore/StructureDefinition/qicore-observation"
          ]
        },
        "status": "final",
        "category": [
          {
            "coding": [
              {
                "system": "http://terminology.hl7.org/CodeSystem/observation-category",
                "code": "survey",
                "display": "Survey"
              }
            ]
          }
        ],
        "code": {
          "coding": [
            {
              "system": "http://loinc.org",
              "code": "98967-3",
              "display": "Nutritional Risk Screening 2002 panel",
              "userSelected": true
            }
          ]
        },
        "subject": {
          "reference": "Patient/1d159e8d-6e29-4dd8-82fa-df5b499c9215"
        },
        "effectiveDateTime": "2026-02-01T09:00:00.000+00:00",
        "valueCodeableConcept": {
          "coding": [
            {
              "system": "http://snomed.info/sct",
              "code": "129689002",
              "display": "At risk for nutritional problem (finding)",
              "userSelected": true
            }
          ]
        }
      },
      "request": {
        "method": "PUT",
        "url": "Observation/fa930645-de1b-42ae-8c2e-ca22609e1a5c"
      }
    },
    {
      "fullUrl": "https://madie.cms.gov/Observation/b5eccf6b-6ad5-4477-a1d6-a6548704269e",
      "resource": {
        "resourceType": "Observation",
        "id": "b5eccf6b-6ad5-4477-a1d6-a6548704269e",
        "meta": {
          "profile": [
            "http://hl7.org/fhir/us/qicore/StructureDefinition/qicore-observation"
          ]
        },
        "status": "final",
        "category": [
          {
            "coding": [
              {
                "system": "http://terminology.hl7.org/CodeSystem/observation-category",
                "code": "survey",
                "display": "Survey"
              }
            ]
          }
        ],
        "code": {
          "coding": [
            {
              "system": "http://loinc.org",
              "code": "75282-4",
              "display": "Nutrition assessment panel",
              "userSelected": true
            }
          ]
        },
        "subject": {
          "reference": "Patient/1d159e8d-6e29-4dd8-82fa-df5b499c9215"
        },
        "effectiveDateTime": "2026-02-01T10:00:00.000+00:00",
        "valueCodeableConcept": {
          "coding": [
            {
              "system": "http://snomed.info/sct",
              "code": "102635008",
              "display": "Acute nutritional deficiency (finding)",
              "userSelected": true
            }
          ]
        }
      },
      "request": {
        "method": "PUT",
        "url": "Observation/b5eccf6b-6ad5-4477-a1d6-a6548704269e"
      }
    },
    {
      "fullUrl": "https://madie.cms.gov/Procedure/0556888b-e24b-48ee-a98d-88b2ba5b7e37",
      "resource": {
        "resourceType": "Procedure",
        "id": "0556888b-e24b-48ee-a98d-88b2ba5b7e37",
        "meta": {
          "profile": [
            "http://hl7.org/fhir/us/qicore/StructureDefinition/qicore-procedure"
          ]
        },
        "extension": [
          {
            "url": "http://hl7.org/fhir/us/qicore/StructureDefinition/qicore-recorded",
            "valueDateTime": "2025-02-01T11:30:00.000Z"
          }
        ],
        "status": "completed",
        "code": {
          "coding": [
            {
              "system": "http://snomed.info/sct",
              "code": "306165000",
              "display": "Referral to hospital-based dietetics service (procedure)"
            }
          ],
          "text": "Referral to hospital-based dietetics service (procedure)"
        },
        "subject": {
          "reference": "Patient/1d159e8d-6e29-4dd8-82fa-df5b499c9215"
        },
        "encounter": {
          "reference": "Encounter/Not65IPPFAIL"
        },
        "performedPeriod": {
          "start": "2026-02-01T11:30:00.000Z",
          "end": "2026-02-07T08:15:00.000Z"
        }
      },
      "request": {
        "method": "PUT",
        "url": "Procedure/0556888b-e24b-48ee-a98d-88b2ba5b7e37"
      }
    },
    {
      "fullUrl": "https://madie.cms.gov/Procedure/f104cd3d-7403-4bf7-841c-8e745a6805d7",
      "resource": {
        "resourceType": "Procedure",
        "id": "f104cd3d-7403-4bf7-841c-8e745a6805d7",
        "meta": {
          "profile": [
            "http://hl7.org/fhir/us/qicore/StructureDefinition/qicore-procedure"
          ]
        },
        "extension": [
          {
            "url": "http://hl7.org/fhir/us/qicore/StructureDefinition/qicore-recorded",
            "valueDateTime": "2026-02-02T11:30:00.000Z"
          }
        ],
        "status": "completed",
        "code": {
          "coding": [
            {
              "system": "http://snomed.info/sct",
              "code": "1279742004",
              "display": "Development of nutrition care plan (procedure)"
            }
          ],
          "text": "Development of nutrition care plan (procedure)"
        },
        "subject": {
          "reference": "Patient/1d159e8d-6e29-4dd8-82fa-df5b499c9215"
        },
        "encounter": {
          "reference": "Encounter/Not65IPPFAIL"
        },
        "performedPeriod": {
          "start": "2026-02-01T11:30:00.000Z",
          "end": "2026-02-07T08:15:00.000Z"
        }
      },
      "request": {
        "method": "PUT",
        "url": "Procedure/f104cd3d-7403-4bf7-841c-8e745a6805d7"
      }
    },
    {
      "fullUrl": "https://madie.cms.gov/Coverage/e862d197-756f-4c8b-b748-52b706495961",
      "resource": {
        "resourceType": "Coverage",
        "id": "e862d197-756f-4c8b-b748-52b706495961",
        "meta": {
          "profile": [
            "http://hl7.org/fhir/us/qicore/StructureDefinition/qicore-coverage"
          ]
        },
        "status": "active",
        "type": {
          "coding": [
            {
              "system": "https://nahdo.org/sopt",
              "version": "9.2",
              "code": "11",
              "display": "Medicare Managed Care (Includes Medicare Advantage Plans)"
            }
          ]
        },
        "beneficiary": {
          "reference": "Patient/1d159e8d-6e29-4dd8-82fa-df5b499c9215"
        },
        "period": {
          "start": "2024-10-01T00:00:00+00:00"
        },
        "payor": [
          {
            "reference": "Organization/c8801a22-e5a8-4456-b8bd-2884df0ea17c"
          }
        ]
      },
      "request": {
        "method": "PUT",
        "url": "Coverage/e862d197-756f-4c8b-b748-52b706495961"
      }
    },
    {
      "fullUrl": "https://madie.cms.gov/Organization/c8801a22-e5a8-4456-b8bd-2884df0ea17c",
      "resource": {
        "resourceType": "Organization",
        "id": "c8801a22-e5a8-4456-b8bd-2884df0ea17c",
        "meta": {
          "profile": [
            "http://hl7.org/fhir/us/qicore/StructureDefinition/qicore-organization"
          ]
        },
        "identifier": [
          {
            "use": "temp",
            "system": "urn:oid:2.16.840.1.113883.4.4",
            "value": "21-3259825"
          }
        ],
        "active": true,
        "type": [
          {
            "coding": [
              {
                "system": "http://terminology.hl7.org/CodeSystem/organization-type",
                "code": "pay",
                "display": "Payer"
              }
            ]
          }
        ],
        "name": "Blue Cross Blue Shield of Texas",
        "telecom": [
          {
            "system": "phone",
            "value": "(+1) 972-766-6900"
          }
        ],
        "address": [
          {
            "use": "billing",
            "type": "postal",
            "line": [
              "P.O. Box 660044"
            ],
            "city": "Dallas",
            "state": "TX",
            "postalCode": "75266-0044",
            "country": "USA"
          }
        ]
      },
      "request": {
        "method": "PUT",
        "url": "Organization/c8801a22-e5a8-4456-b8bd-2884df0ea17c"
      }
    },
    {
      "fullUrl": "https://madie.cms.gov/MeasureReport/3cae174e-2643-4ee7-a8be-503b7e74f2b7",
      "resource": {
        "resourceType": "MeasureReport",
        "id": "3cae174e-2643-4ee7-a8be-503b7e74f2b7",
        "meta": {
          "profile": [
            "http://hl7.org/fhir/us/cqfmeasures/StructureDefinition/test-case-cqfm"
          ]
        },
        "contained": [
          {
            "resourceType": "Parameters",
            "id": "c1912670-2ea0-4478-b168-e2a39b9cb9a6-parameters",
            "parameter": [
              {
                "name": "subject",
                "valueString": "1d159e8d-6e29-4dd8-82fa-df5b499c9215"
              }
            ]
          }
        ],
        "extension": [
          {
            "url": "http://hl7.org/fhir/us/cqfmeasures/StructureDefinition/cqfm-inputParameters",
            "valueReference": {
              "reference": "#c1912670-2ea0-4478-b168-e2a39b9cb9a6-parameters"
            }
          },
          {
            "url": "http://hl7.org/fhir/us/cqfmeasures/StructureDefinition/cqfm-testCaseDescription",
            "valueMarkdown": "Patient is not 65, fails IPP"
          }
        ],
        "modifierExtension": [
          {
            "url": "http://hl7.org/fhir/us/cqfmeasures/StructureDefinition/cqfm-isTestCase",
            "valueBoolean": true
          }
        ],
        "status": "complete",
        "type": "individual",
        "measure": "https://madie.cms.gov/Measure/GlobalMalnutritionCompositeFHIR",
        "period": {
          "start": "2026-01-01",
          "end": "2026-12-31"
        },
        "group": [
          {
            "population": [
              {
                "code": {
                  "coding": [
                    {
                      "system": "http://terminology.hl7.org/CodeSystem/measure-population",
                      "code": "initial-population",
                      "display": "Initial Population"
                    }
                  ]
                },
                "count": 0
              },
              {
                "code": {
                  "coding": [
                    {
                      "system": "http://terminology.hl7.org/CodeSystem/measure-population",
                      "code": "measure-population",
                      "display": "Measure Population"
                    }
                  ]
                },
                "count": 0
              }
            ]
          },
          {
            "population": [
              {
                "code": {
                  "coding": [
                    {
                      "system": "http://terminology.hl7.org/CodeSystem/measure-population",
                      "code": "initial-population",
                      "display": "Initial Population"
                    }
                  ]
                },
                "count": 0
              },
              {
                "code": {
                  "coding": [
                    {
                      "system": "http://terminology.hl7.org/CodeSystem/measure-population",
                      "code": "measure-population",
                      "display": "Measure Population"
                    }
                  ]
                },
                "count": 0
              }
            ]
          },
          {
            "population": [
              {
                "code": {
                  "coding": [
                    {
                      "system": "http://terminology.hl7.org/CodeSystem/measure-population",
                      "code": "initial-population",
                      "display": "Initial Population"
                    }
                  ]
                },
                "count": 0
              },
              {
                "code": {
                  "coding": [
                    {
                      "system": "http://terminology.hl7.org/CodeSystem/measure-population",
                      "code": "measure-population",
                      "display": "Measure Population"
                    }
                  ]
                },
                "count": 0
              }
            ]
          },
          {
            "population": [
              {
                "code": {
                  "coding": [
                    {
                      "system": "http://terminology.hl7.org/CodeSystem/measure-population",
                      "code": "initial-population",
                      "display": "Initial Population"
                    }
                  ]
                },
                "count": 0
              },
              {
                "code": {
                  "coding": [
                    {
                      "system": "http://terminology.hl7.org/CodeSystem/measure-population",
                      "code": "measure-population",
                      "display": "Measure Population"
                    }
                  ]
                },
                "count": 0
              }
            ]
          },
          {
            "population": [
              {
                "code": {
                  "coding": [
                    {
                      "system": "http://terminology.hl7.org/CodeSystem/measure-population",
                      "code": "initial-population",
                      "display": "Initial Population"
                    }
                  ]
                },
                "count": 0
              },
              {
                "code": {
                  "coding": [
                    {
                      "system": "http://terminology.hl7.org/CodeSystem/measure-population",
                      "code": "measure-population",
                      "display": "Measure Population"
                    }
                  ]
                },
                "count": 0
              }
            ]
          },
          {
            "population": [
              {
                "code": {
                  "coding": [
                    {
                      "system": "http://terminology.hl7.org/CodeSystem/measure-population",
                      "code": "initial-population",
                      "display": "Initial Population"
                    }
                  ]
                },
                "count": 0
              },
              {
                "code": {
                  "coding": [
                    {
                      "system": "http://terminology.hl7.org/CodeSystem/measure-population",
                      "code": "measure-population",
                      "display": "Measure Population"
                    }
                  ]
                },
                "count": 0
              }
            ]
          }
        ],
        "evaluatedResource": [
          {
            "reference": "Patient/1d159e8d-6e29-4dd8-82fa-df5b499c9215"
          },
          {
            "reference": "Encounter/49edd25d-2193-4ae7-8424-0f11d04456c2"
          },
          {
            "reference": "Condition/18bd5e0c-94d1-4183-a3a5-f0fefe9124b8"
          },
          {
            "reference": "Observation/fa930645-de1b-42ae-8c2e-ca22609e1a5c"
          },
          {
            "reference": "Observation/b5eccf6b-6ad5-4477-a1d6-a6548704269e"
          },
          {
            "reference": "Procedure/0556888b-e24b-48ee-a98d-88b2ba5b7e37"
          },
          {
            "reference": "Procedure/f104cd3d-7403-4bf7-841c-8e745a6805d7"
          },
          {
            "reference": "Coverage/e862d197-756f-4c8b-b748-52b706495961"
          },
          {
            "reference": "Organization/c8801a22-e5a8-4456-b8bd-2884df0ea17c"
          }
        ]
      },
      "request": {
        "method": "PUT",
        "url": "MeasureReport/3cae174e-2643-4ee7-a8be-503b7e74f2b7"
      }
    }
  ]
}