{
  "resourceType": "Bundle",
  "id": "63594c7a6aee9629c82981df",
  "type": "transaction",
  "entry": [
    {
      "fullUrl": "https://madie.cms.gov/Patient/a2cb8825-c0d1-48d9-a323-83951669d0a6",
      "resource": {
        "resourceType": "Patient",
        "id": "a2cb8825-c0d1-48d9-a323-83951669d0a6",
        "meta": {
          "profile": [
            "http://hl7.org/fhir/us/qicore/StructureDefinition/qicore-patient"
          ]
        },
        "text": {
          "status": "generated",
          "div": "<div xmlns=\"http://www.w3.org/1999/xhtml\"><div class=\"hapiHeaderText\">Risk_CardiacDisease<b>RISKPass </b></div><table class=\"hapiPropertyTable\"><tbody><tr><td>Date of birth</td><td><span>01 February 2004</span></td></tr></tbody></table></div>"
        },
        "extension": [
          {
            "url": "http://hl7.org/fhir/us/core/StructureDefinition/us-core-race",
            "extension": [
              {
                "url": "ombCategory",
                "valueCoding": {
                  "system": "urn:oid:2.16.840.1.113883.6.238",
                  "code": "1002-5",
                  "display": "American Indian or Alaska Native",
                  "userSelected": true
                }
              },
              {
                "url": "text",
                "valueString": "American Indian or Alaska Native"
              }
            ]
          },
          {
            "url": "http://hl7.org/fhir/us/core/StructureDefinition/us-core-ethnicity",
            "extension": [
              {
                "url": "ombCategory",
                "valueCoding": {
                  "system": "urn:oid:2.16.840.1.113883.6.238",
                  "code": "2135-2",
                  "display": "Hispanic or Latino",
                  "userSelected": true
                }
              },
              {
                "url": "text",
                "valueString": "Hispanic or Latino"
              }
            ]
          }
        ],
        "identifier": [
          {
            "type": {
              "coding": [
                {
                  "system": "http://terminology.hl7.org/CodeSystem/v2-0203",
                  "code": "MR"
                }
              ]
            },
            "system": "https://bonnie-fhir.healthit.gov/",
            "value": "63594c7a6aee9629c82981df"
          }
        ],
        "active": true,
        "name": [
          {
            "use": "usual",
            "family": "RiskPass",
            "given": [
              "Risk_CardiacDisease"
            ]
          }
        ],
        "gender": "female",
        "birthDate": "2004-02-01"
      },
      "request": {
        "method": "PUT",
        "url": "Patient/a2cb8825-c0d1-48d9-a323-83951669d0a6"
      }
    },
    {
      "fullUrl": "https://madie.cms.gov/Observation/ea41921f-5b1b-4087-a7d1-69457fc646d2",
      "resource": {
        "resourceType": "Observation",
        "id": "ea41921f-5b1b-4087-a7d1-69457fc646d2",
        "meta": {
          "profile": [
            "http://hl7.org/fhir/us/qicore/StructureDefinition/qicore-observation"
          ]
        },
        "status": "final",
        "category": [
          {
            "coding": [
              {
                "system": "http://terminology.hl7.org/CodeSystem/observation-category",
                "code": "exam",
                "display": "exam",
                "userSelected": true
              }
            ]
          }
        ],
        "code": {
          "coding": [
            {
              "system": "http://loinc.org",
              "code": "93857-1"
            }
          ]
        },
        "subject": {
          "reference": "Patient/a2cb8825-c0d1-48d9-a323-83951669d0a6"
        },
        "effectiveDateTime": "2024-02-01T08:00:00.000+00:00",
        "valueDateTime": "2024-02-01T08:00:00+00:00"
      },
      "request": {
        "method": "PUT",
        "url": "Observation/ea41921f-5b1b-4087-a7d1-69457fc646d2"
      }
    },
    {
      "fullUrl": "https://madie.cms.gov/Observation/055b4596-7b33-47a1-bfac-72534266f1f7",
      "resource": {
        "resourceType": "Observation",
        "id": "055b4596-7b33-47a1-bfac-72534266f1f7",
        "meta": {
          "profile": [
            "http://hl7.org/fhir/us/qicore/StructureDefinition/qicore-observation"
          ]
        },
        "status": "final",
        "category": [
          {
            "coding": [
              {
                "system": "http://terminology.hl7.org/CodeSystem/observation-category",
                "code": "exam",
                "display": "exam",
                "userSelected": true
              }
            ]
          }
        ],
        "code": {
          "coding": [
            {
              "system": "http://loinc.org",
              "code": "11778-8"
            }
          ]
        },
        "subject": {
          "reference": "Patient/a2cb8825-c0d1-48d9-a323-83951669d0a6"
        },
        "effectiveDateTime": "2024-02-01T08:00:00.000+00:00",
        "valueDateTime": "2024-02-01T00:00:00.000+00:00"
      },
      "request": {
        "method": "PUT",
        "url": "Observation/055b4596-7b33-47a1-bfac-72534266f1f7"
      }
    },
    {
      "fullUrl": "https://madie.cms.gov/Encounter/fa627182-8cdd-4ee1-a23e-a8f9e4360947",
      "resource": {
        "resourceType": "Encounter",
        "id": "fa627182-8cdd-4ee1-a23e-a8f9e4360947",
        "meta": {
          "profile": [
            "http://hl7.org/fhir/us/qicore/StructureDefinition/qicore-encounter"
          ]
        },
        "status": "finished",
        "class": {
          "system": "http://terminology.hl7.org/CodeSystem/v3-ActCode",
          "code": "IMP",
          "display": "inpatient encounter"
        },
        "type": [
          {
            "coding": [
              {
                "system": "http://snomed.info/sct",
                "code": "183452005"
              }
            ]
          }
        ],
        "subject": {
          "reference": "Patient/a2cb8825-c0d1-48d9-a323-83951669d0a6"
        },
        "period": {
          "start": "2024-02-01T08:00:00.000Z",
          "end": "2024-02-05T08:15:00.000Z"
        },
        "diagnosis": [
          {
            "extension": [
              {
                "url": "http://hl7.org/fhir/us/qicore/StructureDefinition/qicore-encounter-diagnosisPresentOnAdmission",
                "valueCodeableConcept": {
                  "coding": [
                    {
                      "system": "https://www.cms.gov/Medicare/Medicare-Fee-for-Service-Payment/HospitalAcqCond/Coding",
                      "code": "Y"
                    }
                  ]
                }
              }
            ],
            "condition": {
              "reference": "Condition/06ed01b9-3e7d-416d-a51c-971218d75bb4"
            }
          },
          {
            "extension": [
              {
                "url": "http://hl7.org/fhir/us/qicore/StructureDefinition/qicore-encounter-diagnosisPresentOnAdmission",
                "valueCodeableConcept": {
                  "coding": [
                    {
                      "system": "https://www.cms.gov/Medicare/Medicare-Fee-for-Service-Payment/HospitalAcqCond/Coding",
                      "code": "N"
                    }
                  ]
                }
              }
            ],
            "condition": {
              "reference": "Condition/34ba613e-2cf9-45dc-8d97-281db00ccac3"
            }
          }
        ]
      },
      "request": {
        "method": "PUT",
        "url": "Encounter/fa627182-8cdd-4ee1-a23e-a8f9e4360947"
      }
    },
    {
      "fullUrl": "https://madie.cms.gov/Procedure/546dd1d4-db93-4409-8ace-52cbcc4bf69f",
      "resource": {
        "resourceType": "Procedure",
        "id": "546dd1d4-db93-4409-8ace-52cbcc4bf69f",
        "meta": {
          "profile": [
            "http://hl7.org/fhir/us/qicore/StructureDefinition/qicore-procedure"
          ]
        },
        "extension": [
          {
            "url": "http://hl7.org/fhir/us/qicore/StructureDefinition/qicore-recorded",
            "valueDateTime": "2013-04-05T09:35:00-04:00"
          }
        ],
        "status": "completed",
        "code": {
          "coding": [
            {
              "system": "http://snomed.info/sct",
              "code": "10745001"
            }
          ]
        },
        "subject": {
          "reference": "Patient/a2cb8825-c0d1-48d9-a323-83951669d0a6"
        },
        "performedDateTime": "2024-02-01T08:00:00.000+00:00"
      },
      "request": {
        "method": "PUT",
        "url": "Procedure/546dd1d4-db93-4409-8ace-52cbcc4bf69f"
      }
    },
    {
      "fullUrl": "https://madie.cms.gov/Condition/34ba613e-2cf9-45dc-8d97-281db00ccac3",
      "resource": {
        "resourceType": "Condition",
        "id": "34ba613e-2cf9-45dc-8d97-281db00ccac3",
        "meta": {
          "profile": [
            "http://hl7.org/fhir/us/qicore/StructureDefinition/qicore-condition"
          ]
        },
        "category": [
          {
            "coding": [
              {
                "system": "http://terminology.hl7.org/CodeSystem/condition-category",
                "code": "encounter-diagnosis",
                "display": "Encounter Diagnosis"
              }
            ]
          }
        ],
        "code": {
          "coding": [
            {
              "system": "http://hl7.org/fhir/sid/icd-10-cm",
              "version": "2023",
              "code": "A32.7",
              "display": "Listerial sepsis",
              "userSelected": true
            }
          ]
        },
        "subject": {
          "reference": "Patient/a2cb8825-c0d1-48d9-a323-83951669d0a6"
        },
        "recordedDate": "2024-10-26T08:00:00.000+00:00"
      },
      "request": {
        "method": "PUT",
        "url": "Condition/34ba613e-2cf9-45dc-8d97-281db00ccac3"
      }
    },
    {
      "fullUrl": "https://madie.cms.gov/Condition/06ed01b9-3e7d-416d-a51c-971218d75bb4",
      "resource": {
        "resourceType": "Condition",
        "id": "06ed01b9-3e7d-416d-a51c-971218d75bb4",
        "meta": {
          "profile": [
            "http://hl7.org/fhir/us/qicore/StructureDefinition/qicore-condition"
          ]
        },
        "category": [
          {
            "coding": [
              {
                "system": "http://terminology.hl7.org/CodeSystem/condition-category",
                "code": "encounter-diagnosis",
                "display": "Encounter Diagnosis"
              }
            ]
          }
        ],
        "code": {
          "coding": [
            {
              "system": "http://hl7.org/fhir/sid/icd-10-cm",
              "version": "2023",
              "code": "I05.0",
              "display": "Cardiac Disease",
              "userSelected": true
            }
          ]
        },
        "subject": {
          "reference": "Patient/a2cb8825-c0d1-48d9-a323-83951669d0a6"
        },
        "recordedDate": "2024-10-26T08:00:00.000+00:00"
      },
      "request": {
        "method": "PUT",
        "url": "Condition/06ed01b9-3e7d-416d-a51c-971218d75bb4"
      }
    },
    {
      "fullUrl": "https://madie.cms.gov/MeasureReport/e9408a22-9c16-4fe4-9fef-795bbf3367c7",
      "resource": {
        "resourceType": "MeasureReport",
        "id": "e9408a22-9c16-4fe4-9fef-795bbf3367c7",
        "meta": {
          "profile": [
            "http://hl7.org/fhir/us/cqfmeasures/StructureDefinition/test-case-cqfm"
          ]
        },
        "contained": [
          {
            "resourceType": "Parameters",
            "id": "df93faab-9976-4ec5-8522-af3fe63716a7-parameters",
            "parameter": [
              {
                "name": "subject",
                "valueString": "a2cb8825-c0d1-48d9-a323-83951669d0a6"
              }
            ]
          }
        ],
        "extension": [
          {
            "url": "http://hl7.org/fhir/us/cqfmeasures/StructureDefinition/cqfm-inputParameters",
            "valueReference": {
              "reference": "#df93faab-9976-4ec5-8522-af3fe63716a7-parameters"
            }
          },
          {
            "url": "http://hl7.org/fhir/us/cqfmeasures/StructureDefinition/cqfm-testCaseDescription",
            "valueMarkdown": "Risk variable of cardiac disease\n\n"
          }
        ],
        "modifierExtension": [
          {
            "url": "http://hl7.org/fhir/us/cqfmeasures/StructureDefinition/cqfm-isTestCase",
            "valueBoolean": true
          }
        ],
        "status": "complete",
        "type": "individual",
        "measure": "https://madie.cms.gov/Measure/SevereObstetricComplicationsFHIR",
        "period": {
          "start": "2024-01-01",
          "end": "2024-12-31"
        },
        "group": [
          {
            "population": [
              {
                "code": {
                  "coding": [
                    {
                      "system": "http://terminology.hl7.org/CodeSystem/measure-population",
                      "code": "initial-population",
                      "display": "Initial Population"
                    }
                  ]
                },
                "count": 1
              },
              {
                "code": {
                  "coding": [
                    {
                      "system": "http://terminology.hl7.org/CodeSystem/measure-population",
                      "code": "denominator",
                      "display": "Denominator"
                    }
                  ]
                },
                "count": 1
              },
              {
                "code": {
                  "coding": [
                    {
                      "system": "http://terminology.hl7.org/CodeSystem/measure-population",
                      "code": "denominator-exclusion",
                      "display": "Denominator Exclusion"
                    }
                  ]
                },
                "count": 0
              },
              {
                "code": {
                  "coding": [
                    {
                      "system": "http://terminology.hl7.org/CodeSystem/measure-population",
                      "code": "numerator",
                      "display": "Numerator"
                    }
                  ]
                },
                "count": 1
              }
            ]
          }
        ],
        "evaluatedResource": [
          {
            "reference": "Patient/a2cb8825-c0d1-48d9-a323-83951669d0a6"
          },
          {
            "reference": "Observation/ea41921f-5b1b-4087-a7d1-69457fc646d2"
          },
          {
            "reference": "Observation/055b4596-7b33-47a1-bfac-72534266f1f7"
          },
          {
            "reference": "Encounter/fa627182-8cdd-4ee1-a23e-a8f9e4360947"
          },
          {
            "reference": "Procedure/546dd1d4-db93-4409-8ace-52cbcc4bf69f"
          },
          {
            "reference": "Condition/34ba613e-2cf9-45dc-8d97-281db00ccac3"
          },
          {
            "reference": "Condition/06ed01b9-3e7d-416d-a51c-971218d75bb4"
          }
        ]
      },
      "request": {
        "method": "PUT",
        "url": "MeasureReport/e9408a22-9c16-4fe4-9fef-795bbf3367c7"
      }
    }
  ]
}