{
  "resourceType": "Bundle",
  "id": "633c9d040968f8012250fca3",
  "type": "transaction",
  "entry": [
    {
      "fullUrl": "https://madie.cms.gov/Patient/e7888a05-f4db-403f-b9a1-b9dc582cff96",
      "resource": {
        "resourceType": "Patient",
        "id": "e7888a05-f4db-403f-b9a1-b9dc582cff96",
        "meta": {
          "profile": [
            "http://hl7.org/fhir/us/qicore/StructureDefinition/qicore-patient"
          ]
        },
        "text": {
          "status": "generated",
          "div": "<div xmlns=\"http://www.w3.org/1999/xhtml\"><div class=\"hapiHeaderText\">CMOdurED_ED=1hrNoObsBFEnc <b>DENEXPASS </b></div><table class=\"hapiPropertyTable\"><tbody><tr><td>Identifier</td><td>670854918483ca8b7894283bd5cddbcf5037c5392991b8777bf3c4f78ed05f0b</td></tr><tr><td>Date of birth</td><td><span>18 September 1985</span></td></tr></tbody></table></div>"
        },
        "extension": [
          {
            "url": "http://hl7.org/fhir/us/core/StructureDefinition/us-core-race",
            "extension": [
              {
                "url": "ombCategory",
                "valueCoding": {
                  "system": "urn:oid:2.16.840.1.113883.6.238",
                  "code": "1002-5",
                  "display": "American Indian or Alaska Native",
                  "userSelected": true
                }
              },
              {
                "url": "text",
                "valueString": "American Indian or Alaska Native"
              }
            ]
          },
          {
            "url": "http://hl7.org/fhir/us/core/StructureDefinition/us-core-ethnicity",
            "extension": [
              {
                "url": "ombCategory",
                "valueCoding": {
                  "system": "urn:oid:2.16.840.1.113883.6.238",
                  "code": "2135-2",
                  "display": "Hispanic or Latino",
                  "userSelected": true
                }
              },
              {
                "url": "text",
                "valueString": "Hispanic or Latino"
              }
            ]
          }
        ],
        "identifier": [
          {
            "type": {
              "coding": [
                {
                  "system": "http://terminology.hl7.org/CodeSystem/v2-0203",
                  "code": "MR"
                }
              ]
            },
            "system": "https://bonnie-fhir.healthit.gov/",
            "value": "633c9d040968f8012250fca3"
          }
        ],
        "active": true,
        "name": [
          {
            "use": "usual",
            "family": "DENEXFail",
            "given": [
              "CMOdurEDEDEQ1hrNoObsBFEncdoNotPerform"
            ]
          }
        ],
        "gender": "female",
        "birthDate": "1985-09-18"
      },
      "request": {
        "method": "PUT",
        "url": "Patient/e7888a05-f4db-403f-b9a1-b9dc582cff96"
      }
    },
    {
      "fullUrl": "https://madie.cms.gov/Condition/3a4db1fd-6c85-46a9-be96-2c35b18adb3e",
      "resource": {
        "resourceType": "Condition",
        "id": "3a4db1fd-6c85-46a9-be96-2c35b18adb3e",
        "meta": {
          "profile": [
            "http://hl7.org/fhir/us/qicore/StructureDefinition/qicore-condition"
          ]
        },
        "clinicalStatus": {
          "coding": [
            {
              "system": "http://terminology.hl7.org/CodeSystem/condition-clinical",
              "code": "inactive"
            }
          ]
        },
        "verificationStatus": {
          "coding": [
            {
              "system": "http://terminology.hl7.org/CodeSystem/condition-ver-status",
              "code": "confirmed"
            }
          ]
        },
        "category": [
          {
            "coding": [
              {
                "system": "http://terminology.hl7.org/CodeSystem/condition-category",
                "code": "encounter-diagnosis",
                "display": "Encounter Diagnosis"
              }
            ]
          }
        ],
        "code": {
          "coding": [
            {
              "system": "http://hl7.org/fhir/sid/icd-10-cm",
              "code": "I48.20"
            },
            {
              "system": "http://hl7.org/fhir/sid/icd-10-cm",
              "code": "I48.0"
            },
            {
              "system": "http://snomed.info/sct",
              "code": "5370000"
            }
          ]
        },
        "subject": {
          "reference": "Patient/e7888a05-f4db-403f-b9a1-b9dc582cff96"
        },
        "onsetDateTime": "2025-10-01T09:01:00.000Z",
        "abatementDateTime": "2025-10-12T00:15:00.000Z"
      },
      "request": {
        "method": "PUT",
        "url": "Condition/3a4db1fd-6c85-46a9-be96-2c35b18adb3e"
      }
    },
    {
      "fullUrl": "https://madie.cms.gov/Encounter/05098438-717e-4031-8053-813706439c90",
      "resource": {
        "resourceType": "Encounter",
        "id": "05098438-717e-4031-8053-813706439c90",
        "meta": {
          "profile": [
            "http://hl7.org/fhir/us/qicore/StructureDefinition/qicore-encounter"
          ]
        },
        "status": "finished",
        "class": {
          "system": "http://terminology.hl7.org/CodeSystem/v3-ActCode",
          "code": "EMER",
          "display": "emergency"
        },
        "type": [
          {
            "coding": [
              {
                "system": "http://snomed.info/sct",
                "code": "4525004"
              }
            ]
          }
        ],
        "subject": {
          "reference": "Patient/e7888a05-f4db-403f-b9a1-b9dc582cff96"
        },
        "period": {
          "start": "2025-10-01T09:01:00.000Z",
          "end": "2025-10-01T12:15:00.000Z"
        },
        "length": {
          "value": 0,
          "unit": "days"
        }
      },
      "request": {
        "method": "PUT",
        "url": "Encounter/05098438-717e-4031-8053-813706439c90"
      }
    },
    {
      "fullUrl": "https://madie.cms.gov/Encounter/b2fa673e-a88c-42a9-bfb3-b010f1af90e3",
      "resource": {
        "resourceType": "Encounter",
        "id": "b2fa673e-a88c-42a9-bfb3-b010f1af90e3",
        "meta": {
          "profile": [
            "http://hl7.org/fhir/us/qicore/StructureDefinition/qicore-encounter"
          ]
        },
        "status": "finished",
        "class": {
          "system": "http://terminology.hl7.org/CodeSystem/v3-ActCode",
          "code": "IMP",
          "display": "inpatient encounter"
        },
        "type": [
          {
            "coding": [
              {
                "system": "http://snomed.info/sct",
                "code": "32485007"
              }
            ]
          }
        ],
        "subject": {
          "reference": "Patient/e7888a05-f4db-403f-b9a1-b9dc582cff96"
        },
        "period": {
          "start": "2025-10-01T13:15:00.000Z",
          "end": "2025-10-12T00:15:00.000Z"
        },
        "length": {
          "value": 11,
          "unit": "days"
        },
        "diagnosis": [
          {
            "condition": {
              "reference": "Condition/1697519d-6d91-4fdd-aab7-f3d20cb877e1"
            },
            "use": {
              "coding": [
                {
                  "system": "http://terminology.hl7.org/CodeSystem/diagnosis-role",
                  "code": "billing",
                  "display": "Billing"
                }
              ]
            },
            "rank": 1
          }
        ]
      },
      "request": {
        "method": "PUT",
        "url": "Encounter/b2fa673e-a88c-42a9-bfb3-b010f1af90e3"
      }
    },
    {
      "fullUrl": "https://madie.cms.gov/ServiceRequest/4bb26dac-c794-44cc-9926-de1904efb887",
      "resource": {
        "resourceType": "ServiceRequest",
        "id": "4bb26dac-c794-44cc-9926-de1904efb887",
        "meta": {
          "profile": [
            "http://hl7.org/fhir/us/qicore/StructureDefinition/qicore-servicerequest"
          ]
        },
        "status": "active",
        "intent": "order",
        "doNotPerform": true,
        "code": {
          "coding": [
            {
              "system": "http://snomed.info/sct",
              "code": "133918004"
            }
          ]
        },
        "subject": {
          "reference": "Patient/e7888a05-f4db-403f-b9a1-b9dc582cff96"
        },
        "authoredOn": "2025-10-01T09:15:00.000+00:00"
      },
      "request": {
        "method": "PUT",
        "url": "ServiceRequest/4bb26dac-c794-44cc-9926-de1904efb887"
      }
    },
    {
      "fullUrl": "https://madie.cms.gov/Coverage/daa315ae-c86e-43b8-a09f-b67c2fd5c7b8",
      "resource": {
        "resourceType": "Coverage",
        "id": "daa315ae-c86e-43b8-a09f-b67c2fd5c7b8",
        "status": "active",
        "beneficiary": {
          "reference": "Patient/e7888a05-f4db-403f-b9a1-b9dc582cff96"
        },
        "period": {
          "start": "1985-09-18T08:00:00.000Z"
        },
        "payor": [
          {
            "reference": "Organization/4e168cdd-1ba8-48f4-9f8f-7baa5d71fe6d"
          }
        ]
      },
      "request": {
        "method": "PUT",
        "url": "Coverage/daa315ae-c86e-43b8-a09f-b67c2fd5c7b8"
      }
    },
    {
      "fullUrl": "https://madie.cms.gov/Condition/1697519d-6d91-4fdd-aab7-f3d20cb877e1",
      "resource": {
        "resourceType": "Condition",
        "id": "1697519d-6d91-4fdd-aab7-f3d20cb877e1",
        "meta": {
          "profile": [
            "http://hl7.org/fhir/us/qicore/StructureDefinition/qicore-condition"
          ]
        },
        "clinicalStatus": {
          "coding": [
            {
              "system": "http://terminology.hl7.org/CodeSystem/condition-clinical",
              "code": "active"
            }
          ]
        },
        "verificationStatus": {
          "coding": [
            {
              "system": "http://terminology.hl7.org/CodeSystem/condition-ver-status",
              "code": "confirmed"
            }
          ]
        },
        "category": [
          {
            "coding": [
              {
                "system": "http://terminology.hl7.org/CodeSystem/condition-category",
                "code": "encounter-diagnosis",
                "display": "Encounter Diagnosis"
              }
            ]
          }
        ],
        "code": {
          "coding": [
            {
              "system": "http://snomed.info/sct",
              "version": "2021-09",
              "code": "111297002",
              "display": "Nonparalytic stroke (disorder)",
              "userSelected": true
            }
          ]
        },
        "subject": {
          "reference": "Patient/e7888a05-f4db-403f-b9a1-b9dc582cff96"
        },
        "recordedDate": "2025-10-13T08:00:00.000+00:00"
      },
      "request": {
        "method": "PUT",
        "url": "Condition/1697519d-6d91-4fdd-aab7-f3d20cb877e1"
      }
    },
    {
      "fullUrl": "https://madie.cms.gov/Organization/4e168cdd-1ba8-48f4-9f8f-7baa5d71fe6d",
      "resource": {
        "resourceType": "Organization",
        "id": "4e168cdd-1ba8-48f4-9f8f-7baa5d71fe6d",
        "meta": {
          "profile": [
            "http://hl7.org/fhir/us/qicore/StructureDefinition/qicore-organization"
          ]
        },
        "identifier": [
          {
            "use": "temp",
            "system": "urn:oid:2.16.840.1.113883.4.4",
            "value": "21-3259825"
          }
        ],
        "active": true,
        "type": [
          {
            "coding": [
              {
                "system": "http://terminology.hl7.org/CodeSystem/organization-type",
                "code": "pay",
                "display": "Payer"
              }
            ]
          }
        ],
        "name": "Blue Cross Blue Shield of Texas",
        "telecom": [
          {
            "system": "phone",
            "value": "(+1) 972-766-6900"
          }
        ],
        "address": [
          {
            "use": "billing",
            "type": "postal",
            "line": [
              "P.O. Box 660044"
            ],
            "city": "Dallas",
            "state": "TX",
            "postalCode": "75266-0044",
            "country": "USA"
          }
        ]
      },
      "request": {
        "method": "PUT",
        "url": "Organization/4e168cdd-1ba8-48f4-9f8f-7baa5d71fe6d"
      }
    },
    {
      "fullUrl": "https://madie.cms.gov/Practitioner/d6ca4e1c-c4be-49cd-a5ee-4e4a68d932c8",
      "resource": {
        "resourceType": "Practitioner",
        "id": "d6ca4e1c-c4be-49cd-a5ee-4e4a68d932c8",
        "identifier": [
          {
            "system": "http://hl7.org/fhir/sid/us-npi",
            "value": "123456"
          }
        ],
        "name": [
          {
            "family": "Evil",
            "prefix": [
              "Dr"
            ]
          }
        ]
      },
      "request": {
        "method": "PUT",
        "url": "Practitioner/d6ca4e1c-c4be-49cd-a5ee-4e4a68d932c8"
      }
    },
    {
      "fullUrl": "https://madie.cms.gov/MeasureReport/85c4da11-0af8-456f-91df-6962623e5257",
      "resource": {
        "resourceType": "MeasureReport",
        "id": "85c4da11-0af8-456f-91df-6962623e5257",
        "meta": {
          "profile": [
            "http://hl7.org/fhir/us/cqfmeasures/StructureDefinition/test-case-cqfm"
          ]
        },
        "contained": [
          {
            "resourceType": "Parameters",
            "id": "b1cf8d40-ba63-475d-b30b-b150cdb47376-parameters",
            "parameter": [
              {
                "name": "subject",
                "valueString": "e7888a05-f4db-403f-b9a1-b9dc582cff96"
              }
            ]
          }
        ],
        "extension": [
          {
            "url": "http://hl7.org/fhir/us/cqfmeasures/StructureDefinition/cqfm-inputParameters",
            "valueReference": {
              "reference": "#b1cf8d40-ba63-475d-b30b-b150cdb47376-parameters"
            }
          },
          {
            "url": "http://hl7.org/fhir/us/cqfmeasures/StructureDefinition/cqfm-testCaseDescription",
            "valueMarkdown": "Testing do not perform equal to true"
          }
        ],
        "modifierExtension": [
          {
            "url": "http://hl7.org/fhir/us/cqfmeasures/StructureDefinition/cqfm-isTestCase",
            "valueBoolean": true
          }
        ],
        "status": "complete",
        "type": "individual",
        "measure": "https://madie.cms.gov/Measure/DischargedonAntithromboticTherapyFHIR",
        "period": {
          "start": "2025-01-01",
          "end": "2025-12-31"
        },
        "group": [
          {
            "population": [
              {
                "code": {
                  "coding": [
                    {
                      "system": "http://terminology.hl7.org/CodeSystem/measure-population",
                      "code": "initial-population",
                      "display": "Initial Population"
                    }
                  ]
                },
                "count": 1
              },
              {
                "code": {
                  "coding": [
                    {
                      "system": "http://terminology.hl7.org/CodeSystem/measure-population",
                      "code": "denominator",
                      "display": "Denominator"
                    }
                  ]
                },
                "count": 1
              },
              {
                "code": {
                  "coding": [
                    {
                      "system": "http://terminology.hl7.org/CodeSystem/measure-population",
                      "code": "denominator-exclusion",
                      "display": "Denominator Exclusion"
                    }
                  ]
                },
                "count": 0
              },
              {
                "code": {
                  "coding": [
                    {
                      "system": "http://terminology.hl7.org/CodeSystem/measure-population",
                      "code": "numerator",
                      "display": "Numerator"
                    }
                  ]
                },
                "count": 0
              },
              {
                "code": {
                  "coding": [
                    {
                      "system": "http://terminology.hl7.org/CodeSystem/measure-population",
                      "code": "denominator-exception",
                      "display": "Denominator Exception"
                    }
                  ]
                },
                "count": 0
              }
            ]
          }
        ],
        "evaluatedResource": [
          {
            "reference": "Patient/e7888a05-f4db-403f-b9a1-b9dc582cff96"
          },
          {
            "reference": "Condition/3a4db1fd-6c85-46a9-be96-2c35b18adb3e"
          },
          {
            "reference": "Encounter/05098438-717e-4031-8053-813706439c90"
          },
          {
            "reference": "Encounter/b2fa673e-a88c-42a9-bfb3-b010f1af90e3"
          },
          {
            "reference": "ServiceRequest/4bb26dac-c794-44cc-9926-de1904efb887"
          },
          {
            "reference": "Coverage/daa315ae-c86e-43b8-a09f-b67c2fd5c7b8"
          },
          {
            "reference": "Condition/1697519d-6d91-4fdd-aab7-f3d20cb877e1"
          },
          {
            "reference": "Organization/4e168cdd-1ba8-48f4-9f8f-7baa5d71fe6d"
          },
          {
            "reference": "Practitioner/d6ca4e1c-c4be-49cd-a5ee-4e4a68d932c8"
          }
        ]
      },
      "request": {
        "method": "PUT",
        "url": "MeasureReport/85c4da11-0af8-456f-91df-6962623e5257"
      }
    }
  ]
}