{
  "resourceType": "Bundle",
  "id": "634f0f710be7d10d1023e2e4",
  "type": "transaction",
  "entry": [
    {
      "fullUrl": "https://madie.cms.gov/Patient/6ad99f9f-0957-437f-8277-8a6458d1f1f3",
      "resource": {
        "resourceType": "Patient",
        "id": "6ad99f9f-0957-437f-8277-8a6458d1f1f3",
        "meta": {
          "profile": [
            "http://hl7.org/fhir/us/qicore/StructureDefinition/qicore-patient"
          ]
        },
        "extension": [
          {
            "url": "http://hl7.org/fhir/us/core/StructureDefinition/us-core-race",
            "extension": [
              {
                "url": "ombCategory",
                "valueCoding": {
                  "system": "urn:oid:2.16.840.1.113883.6.238",
                  "code": "1002-5",
                  "display": "American Indian or Alaska Native",
                  "userSelected": true
                }
              },
              {
                "url": "text",
                "valueString": "American Indian or Alaska Native"
              }
            ]
          },
          {
            "url": "http://hl7.org/fhir/us/core/StructureDefinition/us-core-ethnicity",
            "extension": [
              {
                "url": "ombCategory",
                "valueCoding": {
                  "system": "urn:oid:2.16.840.1.113883.6.238",
                  "code": "2135-2",
                  "display": "Hispanic or Latino",
                  "userSelected": true
                }
              },
              {
                "url": "text",
                "valueString": "Hispanic or Latino"
              }
            ]
          }
        ],
        "identifier": [
          {
            "type": {
              "coding": [
                {
                  "system": "http://terminology.hl7.org/CodeSystem/v2-0203",
                  "code": "MR"
                }
              ]
            },
            "system": "https://bonnie-fhir.healthit.gov/",
            "value": "634f0f710be7d10d1023e2e4"
          }
        ],
        "name": [
          {
            "family": "IPPass",
            "given": [
              "DelProcStart_EncEndPlus1Minute"
            ]
          }
        ],
        "gender": "female",
        "birthDate": "2004-01-31"
      },
      "request": {
        "method": "PUT",
        "url": "Patient/6ad99f9f-0957-437f-8277-8a6458d1f1f3"
      }
    },
    {
      "fullUrl": "https://madie.cms.gov/Encounter/2889beb6-43b0-4f36-b90f-2d25aa7473ad",
      "resource": {
        "resourceType": "Encounter",
        "id": "2889beb6-43b0-4f36-b90f-2d25aa7473ad",
        "meta": {
          "profile": [
            "http://hl7.org/fhir/us/qicore/StructureDefinition/qicore-encounter"
          ]
        },
        "status": "finished",
        "class": {
          "system": "http://terminology.hl7.org/CodeSystem/v3-ActCode",
          "code": "IMP",
          "display": "inpatient encounter"
        },
        "type": [
          {
            "coding": [
              {
                "system": "http://snomed.info/sct",
                "version": "2022-09",
                "code": "183452005",
                "display": "Emergency hospital admission (procedure)",
                "userSelected": true
              }
            ]
          }
        ],
        "subject": {
          "reference": "Patient/6ad99f9f-0957-437f-8277-8a6458d1f1f3"
        },
        "period": {
          "start": "2024-02-01T08:00:00.000+00:00",
          "end": "2024-02-05T08:15:00.000+00:00"
        }
      },
      "request": {
        "method": "PUT",
        "url": "Encounter/2889beb6-43b0-4f36-b90f-2d25aa7473ad"
      }
    },
    {
      "fullUrl": "https://madie.cms.gov/Procedure/5daf5dbe-a93b-4aad-9968-a790315632d8",
      "resource": {
        "resourceType": "Procedure",
        "id": "5daf5dbe-a93b-4aad-9968-a790315632d8",
        "meta": {
          "profile": [
            "http://hl7.org/fhir/us/qicore/StructureDefinition/qicore-procedure"
          ]
        },
        "extension": [
          {
            "url": "http://hl7.org/fhir/us/qicore/StructureDefinition/qicore-recorded",
            "valueDateTime": "2013-04-05T09:35:00-04:00"
          }
        ],
        "status": "completed",
        "code": {
          "coding": [
            {
              "system": "http://snomed.info/sct",
              "code": "177168003",
              "userSelected": true
            }
          ]
        },
        "subject": {
          "reference": "Patient/6ad99f9f-0957-437f-8277-8a6458d1f1f3"
        },
        "performedDateTime": "2024-02-05T08:16:00.000+00:00"
      },
      "request": {
        "method": "PUT",
        "url": "Procedure/5daf5dbe-a93b-4aad-9968-a790315632d8"
      }
    },
    {
      "fullUrl": "https://madie.cms.gov/Coverage/4395d0e4-dc9b-4c9c-b3a6-aadb9cf605fb",
      "resource": {
        "resourceType": "Coverage",
        "id": "4395d0e4-dc9b-4c9c-b3a6-aadb9cf605fb",
        "meta": {
          "profile": [
            "http://hl7.org/fhir/us/qicore/StructureDefinition/qicore-coverage"
          ]
        },
        "status": "active",
        "beneficiary": {
          "reference": "Patient/6ad99f9f-0957-437f-8277-8a6458d1f1f3"
        },
        "payor": [
          {
            "reference": "Organization/c75be1ac-c8bd-4aa3-b8d7-bff0d4f7d284"
          }
        ]
      },
      "request": {
        "method": "PUT",
        "url": "Coverage/4395d0e4-dc9b-4c9c-b3a6-aadb9cf605fb"
      }
    },
    {
      "fullUrl": "https://madie.cms.gov/Organization/c75be1ac-c8bd-4aa3-b8d7-bff0d4f7d284",
      "resource": {
        "resourceType": "Organization",
        "id": "c75be1ac-c8bd-4aa3-b8d7-bff0d4f7d284",
        "meta": {
          "profile": [
            "http://hl7.org/fhir/us/qicore/StructureDefinition/qicore-organization"
          ]
        },
        "identifier": [
          {
            "use": "temp",
            "system": "urn:oid:2.16.840.1.113883.4.4",
            "value": "21-3259825"
          }
        ],
        "active": true,
        "type": [
          {
            "coding": [
              {
                "system": "http://terminology.hl7.org/CodeSystem/organization-type",
                "code": "pay",
                "display": "Payer"
              }
            ]
          }
        ],
        "name": "Blue Cross Blue Shield of Texas",
        "telecom": [
          {
            "system": "phone",
            "value": "(+1) 972-766-6900"
          }
        ],
        "address": [
          {
            "use": "billing",
            "type": "postal",
            "line": [
              "P.O. Box 660044"
            ],
            "city": "Dallas",
            "state": "TX",
            "postalCode": "75266-0044",
            "country": "USA"
          }
        ]
      },
      "request": {
        "method": "PUT",
        "url": "Organization/c75be1ac-c8bd-4aa3-b8d7-bff0d4f7d284"
      }
    },
    {
      "fullUrl": "https://madie.cms.gov/Practitioner/96343c6a-bab5-4800-9b52-c76158a3f315",
      "resource": {
        "resourceType": "Practitioner",
        "id": "96343c6a-bab5-4800-9b52-c76158a3f315",
        "identifier": [
          {
            "system": "http://hl7.org/fhir/sid/us-npi",
            "value": "123456"
          }
        ],
        "name": [
          {
            "family": "Evil",
            "prefix": [
              "Dr"
            ]
          }
        ]
      },
      "request": {
        "method": "PUT",
        "url": "Practitioner/96343c6a-bab5-4800-9b52-c76158a3f315"
      }
    },
    {
      "fullUrl": "https://madie.cms.gov/MeasureReport/9284b2b2-7ea3-4b4c-a3d4-f31051158696",
      "resource": {
        "resourceType": "MeasureReport",
        "id": "9284b2b2-7ea3-4b4c-a3d4-f31051158696",
        "meta": {
          "profile": [
            "http://hl7.org/fhir/us/cqfmeasures/StructureDefinition/test-case-cqfm"
          ]
        },
        "contained": [
          {
            "resourceType": "Parameters",
            "id": "3d6500f6-0b9b-48f8-8c70-a949a96a9609-parameters",
            "parameter": [
              {
                "name": "subject",
                "valueString": "6ad99f9f-0957-437f-8277-8a6458d1f1f3"
              }
            ]
          }
        ],
        "extension": [
          {
            "url": "http://hl7.org/fhir/us/cqfmeasures/StructureDefinition/cqfm-inputParameters",
            "valueReference": {
              "reference": "#3d6500f6-0b9b-48f8-8c70-a949a96a9609-parameters"
            }
          },
          {
            "url": "http://hl7.org/fhir/us/cqfmeasures/StructureDefinition/cqfm-testCaseDescription",
            "valueMarkdown": "Delivery procedure start equals encounter end plus one minute.   Passes due to \"day of\" logic which was added back in on 6/7/21.\n"
          }
        ],
        "modifierExtension": [
          {
            "url": "http://hl7.org/fhir/us/cqfmeasures/StructureDefinition/cqfm-isTestCase",
            "valueBoolean": true
          }
        ],
        "status": "complete",
        "type": "individual",
        "measure": "https://madie.cms.gov/Measure/SevereObstetricComplicationsFHIR",
        "period": {
          "start": "2024-01-01",
          "end": "2024-12-31"
        },
        "group": [
          {
            "population": [
              {
                "code": {
                  "coding": [
                    {
                      "system": "http://terminology.hl7.org/CodeSystem/measure-population",
                      "code": "initial-population",
                      "display": "Initial Population"
                    }
                  ]
                },
                "count": 1
              },
              {
                "code": {
                  "coding": [
                    {
                      "system": "http://terminology.hl7.org/CodeSystem/measure-population",
                      "code": "denominator",
                      "display": "Denominator"
                    }
                  ]
                },
                "count": 0
              },
              {
                "code": {
                  "coding": [
                    {
                      "system": "http://terminology.hl7.org/CodeSystem/measure-population",
                      "code": "denominator-exclusion",
                      "display": "Denominator Exclusion"
                    }
                  ]
                },
                "count": 0
              },
              {
                "code": {
                  "coding": [
                    {
                      "system": "http://terminology.hl7.org/CodeSystem/measure-population",
                      "code": "numerator",
                      "display": "Numerator"
                    }
                  ]
                },
                "count": 0
              }
            ]
          }
        ],
        "evaluatedResource": [
          {
            "reference": "Patient/6ad99f9f-0957-437f-8277-8a6458d1f1f3"
          },
          {
            "reference": "Encounter/2889beb6-43b0-4f36-b90f-2d25aa7473ad"
          },
          {
            "reference": "Procedure/5daf5dbe-a93b-4aad-9968-a790315632d8"
          },
          {
            "reference": "Coverage/4395d0e4-dc9b-4c9c-b3a6-aadb9cf605fb"
          },
          {
            "reference": "Organization/c75be1ac-c8bd-4aa3-b8d7-bff0d4f7d284"
          },
          {
            "reference": "Practitioner/96343c6a-bab5-4800-9b52-c76158a3f315"
          }
        ]
      },
      "request": {
        "method": "PUT",
        "url": "MeasureReport/9284b2b2-7ea3-4b4c-a3d4-f31051158696"
      }
    }
  ]
}