{
  "resourceType": "Bundle",
  "id": "63594c7a6aee9629c82981df",
  "type": "transaction",
  "entry": [
    {
      "fullUrl": "https://madie.cms.gov/Patient/3a2bd0ea-82e2-4927-82dd-cca08f080cf7",
      "resource": {
        "resourceType": "Patient",
        "id": "3a2bd0ea-82e2-4927-82dd-cca08f080cf7",
        "meta": {
          "profile": [
            "http://hl7.org/fhir/us/qicore/StructureDefinition/qicore-patient"
          ]
        },
        "text": {
          "status": "generated",
          "div": "<div xmlns=\"http://www.w3.org/1999/xhtml\"><div class=\"hapiHeaderText\">Risk_Thyrotoxicosis <b>RISKPass </b></div><table class=\"hapiPropertyTable\"><tbody><tr><td>Date of birth</td><td><span>01 February 2004</span></td></tr></tbody></table></div>"
        },
        "extension": [
          {
            "url": "http://hl7.org/fhir/us/core/StructureDefinition/us-core-race",
            "extension": [
              {
                "url": "ombCategory",
                "valueCoding": {
                  "system": "urn:oid:2.16.840.1.113883.6.238",
                  "code": "1002-5",
                  "display": "American Indian or Alaska Native",
                  "userSelected": true
                }
              },
              {
                "url": "text",
                "valueString": "American Indian or Alaska Native"
              }
            ]
          },
          {
            "url": "http://hl7.org/fhir/us/core/StructureDefinition/us-core-ethnicity",
            "extension": [
              {
                "url": "ombCategory",
                "valueCoding": {
                  "system": "urn:oid:2.16.840.1.113883.6.238",
                  "code": "2135-2",
                  "display": "Hispanic or Latino",
                  "userSelected": true
                }
              },
              {
                "url": "text",
                "valueString": "Hispanic or Latino"
              }
            ]
          }
        ],
        "identifier": [
          {
            "type": {
              "coding": [
                {
                  "system": "http://terminology.hl7.org/CodeSystem/v2-0203",
                  "code": "MR"
                }
              ]
            },
            "system": "https://bonnie-fhir.healthit.gov/",
            "value": "63594c7a6aee9629c82981df"
          }
        ],
        "active": true,
        "name": [
          {
            "use": "usual",
            "family": "RiskPass",
            "given": [
              "Risk_Thyrotoxicosis"
            ]
          }
        ],
        "gender": "female",
        "birthDate": "2004-02-01"
      },
      "request": {
        "method": "PUT",
        "url": "Patient/3a2bd0ea-82e2-4927-82dd-cca08f080cf7"
      }
    },
    {
      "fullUrl": "https://madie.cms.gov/Observation/b34b5899-8dda-4508-9c43-147270e1dda7",
      "resource": {
        "resourceType": "Observation",
        "id": "b34b5899-8dda-4508-9c43-147270e1dda7",
        "meta": {
          "profile": [
            "http://hl7.org/fhir/us/qicore/StructureDefinition/qicore-observation"
          ]
        },
        "status": "final",
        "category": [
          {
            "coding": [
              {
                "system": "http://terminology.hl7.org/CodeSystem/observation-category",
                "code": "exam",
                "display": "exam",
                "userSelected": true
              }
            ]
          }
        ],
        "code": {
          "coding": [
            {
              "system": "http://loinc.org",
              "code": "93857-1"
            }
          ]
        },
        "subject": {
          "reference": "Patient/3a2bd0ea-82e2-4927-82dd-cca08f080cf7"
        },
        "effectiveDateTime": "2024-02-01T08:00:00.000+00:00",
        "valueDateTime": "2024-02-01T08:00:00+00:00"
      },
      "request": {
        "method": "PUT",
        "url": "Observation/b34b5899-8dda-4508-9c43-147270e1dda7"
      }
    },
    {
      "fullUrl": "https://madie.cms.gov/Observation/6204914d-1354-4a62-be4f-4484876b8059",
      "resource": {
        "resourceType": "Observation",
        "id": "6204914d-1354-4a62-be4f-4484876b8059",
        "meta": {
          "profile": [
            "http://hl7.org/fhir/us/qicore/StructureDefinition/qicore-observation"
          ]
        },
        "status": "final",
        "category": [
          {
            "coding": [
              {
                "system": "http://terminology.hl7.org/CodeSystem/observation-category",
                "code": "exam",
                "display": "exam",
                "userSelected": true
              }
            ]
          }
        ],
        "code": {
          "coding": [
            {
              "system": "http://loinc.org",
              "code": "11778-8"
            }
          ]
        },
        "subject": {
          "reference": "Patient/3a2bd0ea-82e2-4927-82dd-cca08f080cf7"
        },
        "effectiveDateTime": "2024-02-01T08:00:00.000+00:00",
        "valueDateTime": "2024-02-01T00:00:00.000+00:00"
      },
      "request": {
        "method": "PUT",
        "url": "Observation/6204914d-1354-4a62-be4f-4484876b8059"
      }
    },
    {
      "fullUrl": "https://madie.cms.gov/Encounter/c71758ae-1720-4ee9-b0d4-1ba97c15c157",
      "resource": {
        "resourceType": "Encounter",
        "id": "c71758ae-1720-4ee9-b0d4-1ba97c15c157",
        "meta": {
          "profile": [
            "http://hl7.org/fhir/us/qicore/StructureDefinition/qicore-encounter"
          ]
        },
        "status": "finished",
        "class": {
          "system": "http://terminology.hl7.org/CodeSystem/v3-ActCode",
          "code": "IMP",
          "display": "inpatient encounter"
        },
        "type": [
          {
            "coding": [
              {
                "system": "http://snomed.info/sct",
                "code": "183452005"
              }
            ]
          }
        ],
        "subject": {
          "reference": "Patient/3a2bd0ea-82e2-4927-82dd-cca08f080cf7"
        },
        "period": {
          "start": "2024-02-01T08:00:00.000Z",
          "end": "2024-02-05T08:15:00.000Z"
        },
        "diagnosis": [
          {
            "extension": [
              {
                "url": "http://hl7.org/fhir/us/qicore/StructureDefinition/qicore-encounter-diagnosisPresentOnAdmission",
                "valueCodeableConcept": {
                  "coding": [
                    {
                      "system": "https://www.cms.gov/Medicare/Medicare-Fee-for-Service-Payment/HospitalAcqCond/Coding",
                      "code": "Y"
                    }
                  ]
                }
              }
            ],
            "condition": {
              "reference": "Condition/5a6ca40d-006f-433b-8f05-c076eb5fd818"
            }
          },
          {
            "extension": [
              {
                "url": "http://hl7.org/fhir/us/qicore/StructureDefinition/qicore-encounter-diagnosisPresentOnAdmission",
                "valueCodeableConcept": {
                  "coding": [
                    {
                      "system": "https://www.cms.gov/Medicare/Medicare-Fee-for-Service-Payment/HospitalAcqCond/Coding",
                      "code": "N"
                    }
                  ]
                }
              }
            ],
            "condition": {
              "reference": "Condition/e0f6c85a-3308-4fe7-9f62-d24198a46fd2"
            }
          }
        ]
      },
      "request": {
        "method": "PUT",
        "url": "Encounter/c71758ae-1720-4ee9-b0d4-1ba97c15c157"
      }
    },
    {
      "fullUrl": "https://madie.cms.gov/Procedure/4378a73e-7659-45b7-a106-ae0f92ebe055",
      "resource": {
        "resourceType": "Procedure",
        "id": "4378a73e-7659-45b7-a106-ae0f92ebe055",
        "meta": {
          "profile": [
            "http://hl7.org/fhir/us/qicore/StructureDefinition/qicore-procedure"
          ]
        },
        "extension": [
          {
            "url": "http://hl7.org/fhir/us/qicore/StructureDefinition/qicore-recorded",
            "valueDateTime": "2013-04-05T09:35:00-04:00"
          }
        ],
        "status": "completed",
        "code": {
          "coding": [
            {
              "system": "http://snomed.info/sct",
              "code": "10745001"
            }
          ]
        },
        "subject": {
          "reference": "Patient/3a2bd0ea-82e2-4927-82dd-cca08f080cf7"
        },
        "performedDateTime": "2024-02-01T08:00:00.000+00:00"
      },
      "request": {
        "method": "PUT",
        "url": "Procedure/4378a73e-7659-45b7-a106-ae0f92ebe055"
      }
    },
    {
      "fullUrl": "https://madie.cms.gov/Condition/e0f6c85a-3308-4fe7-9f62-d24198a46fd2",
      "resource": {
        "resourceType": "Condition",
        "id": "e0f6c85a-3308-4fe7-9f62-d24198a46fd2",
        "meta": {
          "profile": [
            "http://hl7.org/fhir/us/qicore/StructureDefinition/qicore-condition"
          ]
        },
        "category": [
          {
            "coding": [
              {
                "system": "http://terminology.hl7.org/CodeSystem/condition-category",
                "code": "encounter-diagnosis",
                "display": "Encounter Diagnosis"
              }
            ]
          }
        ],
        "code": {
          "coding": [
            {
              "system": "http://hl7.org/fhir/sid/icd-10-cm",
              "version": "2023",
              "code": "A32.7",
              "display": "Listerial sepsis",
              "userSelected": true
            }
          ]
        },
        "subject": {
          "reference": "Patient/3a2bd0ea-82e2-4927-82dd-cca08f080cf7"
        },
        "recordedDate": "2024-10-26T08:00:00.000+00:00"
      },
      "request": {
        "method": "PUT",
        "url": "Condition/e0f6c85a-3308-4fe7-9f62-d24198a46fd2"
      }
    },
    {
      "fullUrl": "https://madie.cms.gov/Condition/5a6ca40d-006f-433b-8f05-c076eb5fd818",
      "resource": {
        "resourceType": "Condition",
        "id": "5a6ca40d-006f-433b-8f05-c076eb5fd818",
        "meta": {
          "profile": [
            "http://hl7.org/fhir/us/qicore/StructureDefinition/qicore-condition"
          ]
        },
        "category": [
          {
            "coding": [
              {
                "system": "http://terminology.hl7.org/CodeSystem/condition-category",
                "code": "encounter-diagnosis",
                "display": "Encounter Diagnosis"
              }
            ]
          }
        ],
        "code": {
          "coding": [
            {
              "system": "http://hl7.org/fhir/sid/icd-10-cm",
              "version": "2023",
              "code": "E05.00",
              "display": "Thyrotoxicosis",
              "userSelected": true
            }
          ]
        },
        "subject": {
          "reference": "Patient/3a2bd0ea-82e2-4927-82dd-cca08f080cf7"
        },
        "recordedDate": "2024-10-26T08:00:00.000+00:00"
      },
      "request": {
        "method": "PUT",
        "url": "Condition/5a6ca40d-006f-433b-8f05-c076eb5fd818"
      }
    },
    {
      "fullUrl": "https://madie.cms.gov/MeasureReport/c61ae3c3-d155-4819-b673-6b687e795109",
      "resource": {
        "resourceType": "MeasureReport",
        "id": "c61ae3c3-d155-4819-b673-6b687e795109",
        "meta": {
          "profile": [
            "http://hl7.org/fhir/us/cqfmeasures/StructureDefinition/test-case-cqfm"
          ]
        },
        "contained": [
          {
            "resourceType": "Parameters",
            "id": "36f220a8-599d-4b58-b1cc-4fc8100039fb-parameters",
            "parameter": [
              {
                "name": "subject",
                "valueString": "3a2bd0ea-82e2-4927-82dd-cca08f080cf7"
              }
            ]
          }
        ],
        "extension": [
          {
            "url": "http://hl7.org/fhir/us/cqfmeasures/StructureDefinition/cqfm-inputParameters",
            "valueReference": {
              "reference": "#36f220a8-599d-4b58-b1cc-4fc8100039fb-parameters"
            }
          },
          {
            "url": "http://hl7.org/fhir/us/cqfmeasures/StructureDefinition/cqfm-testCaseDescription",
            "valueMarkdown": " Risk variable of thyrotoxicosis.\n\n"
          }
        ],
        "modifierExtension": [
          {
            "url": "http://hl7.org/fhir/us/cqfmeasures/StructureDefinition/cqfm-isTestCase",
            "valueBoolean": true
          }
        ],
        "status": "complete",
        "type": "individual",
        "measure": "https://madie.cms.gov/Measure/SevereObstetricComplicationsFHIR",
        "period": {
          "start": "2024-01-01",
          "end": "2024-12-31"
        },
        "group": [
          {
            "population": [
              {
                "code": {
                  "coding": [
                    {
                      "system": "http://terminology.hl7.org/CodeSystem/measure-population",
                      "code": "initial-population",
                      "display": "Initial Population"
                    }
                  ]
                },
                "count": 1
              },
              {
                "code": {
                  "coding": [
                    {
                      "system": "http://terminology.hl7.org/CodeSystem/measure-population",
                      "code": "denominator",
                      "display": "Denominator"
                    }
                  ]
                },
                "count": 1
              },
              {
                "code": {
                  "coding": [
                    {
                      "system": "http://terminology.hl7.org/CodeSystem/measure-population",
                      "code": "denominator-exclusion",
                      "display": "Denominator Exclusion"
                    }
                  ]
                },
                "count": 0
              },
              {
                "code": {
                  "coding": [
                    {
                      "system": "http://terminology.hl7.org/CodeSystem/measure-population",
                      "code": "numerator",
                      "display": "Numerator"
                    }
                  ]
                },
                "count": 1
              }
            ]
          }
        ],
        "evaluatedResource": [
          {
            "reference": "Patient/3a2bd0ea-82e2-4927-82dd-cca08f080cf7"
          },
          {
            "reference": "Observation/b34b5899-8dda-4508-9c43-147270e1dda7"
          },
          {
            "reference": "Observation/6204914d-1354-4a62-be4f-4484876b8059"
          },
          {
            "reference": "Encounter/c71758ae-1720-4ee9-b0d4-1ba97c15c157"
          },
          {
            "reference": "Procedure/4378a73e-7659-45b7-a106-ae0f92ebe055"
          },
          {
            "reference": "Condition/e0f6c85a-3308-4fe7-9f62-d24198a46fd2"
          },
          {
            "reference": "Condition/5a6ca40d-006f-433b-8f05-c076eb5fd818"
          }
        ]
      },
      "request": {
        "method": "PUT",
        "url": "MeasureReport/c61ae3c3-d155-4819-b673-6b687e795109"
      }
    }
  ]
}