{
  "resourceType": "Bundle",
  "id": "6129135c02c62a011f2e7820",
  "type": "transaction",
  "entry": [
    {
      "fullUrl": "https://madie.cms.gov/Patient/95560f62-a049-4f9a-979f-926fd87414c2",
      "resource": {
        "resourceType": "Patient",
        "id": "95560f62-a049-4f9a-979f-926fd87414c2",
        "meta": {
          "profile": [
            "http://hl7.org/fhir/us/qicore/StructureDefinition/qicore-patient"
          ]
        },
        "text": {
          "status": "generated",
          "div": "<div xmlns=\"http://www.w3.org/1999/xhtml\"><div class=\"hapiHeaderText\">BadDef_STK=Rank_2 <b>IPFAIL </b></div><table class=\"hapiPropertyTable\"><tbody><tr><td>Identifier</td><td>05f04bc3a037918e7f8e8e698f994329</td></tr><tr><td>Date of birth</td><td><span>21 August 1994</span></td></tr></tbody></table></div>"
        },
        "extension": [
          {
            "url": "http://hl7.org/fhir/us/core/StructureDefinition/us-core-race",
            "extension": [
              {
                "url": "ombCategory",
                "valueCoding": {
                  "system": "urn:oid:2.16.840.1.113883.6.238",
                  "code": "1002-5",
                  "display": "American Indian or Alaska Native",
                  "userSelected": true
                }
              },
              {
                "url": "text",
                "valueString": "American Indian or Alaska Native"
              }
            ]
          },
          {
            "url": "http://hl7.org/fhir/us/core/StructureDefinition/us-core-ethnicity",
            "extension": [
              {
                "url": "ombCategory",
                "valueCoding": {
                  "system": "urn:oid:2.16.840.1.113883.6.238",
                  "code": "2135-2",
                  "display": "Hispanic or Latino",
                  "userSelected": true
                }
              },
              {
                "url": "text",
                "valueString": "Hispanic or Latino"
              }
            ]
          }
        ],
        "identifier": [
          {
            "type": {
              "coding": [
                {
                  "system": "http://terminology.hl7.org/CodeSystem/v2-0203",
                  "code": "MR"
                }
              ]
            },
            "system": "https://bonnie-fhir.healthit.gov/",
            "value": "6129135c02c62a011f2e7820"
          }
        ],
        "active": true,
        "name": [
          {
            "use": "usual",
            "family": "IPFail",
            "given": [
              "BadDef_STK=Rank_2"
            ]
          }
        ],
        "gender": "female",
        "birthDate": "2003-08-21"
      },
      "request": {
        "method": "PUT",
        "url": "Patient/95560f62-a049-4f9a-979f-926fd87414c2"
      }
    },
    {
      "fullUrl": "https://madie.cms.gov/Encounter/0096488a-67cd-42eb-aa70-394e87ba3e7e",
      "resource": {
        "resourceType": "Encounter",
        "id": "0096488a-67cd-42eb-aa70-394e87ba3e7e",
        "meta": {
          "profile": [
            "http://hl7.org/fhir/us/qicore/StructureDefinition/qicore-encounter"
          ]
        },
        "status": "finished",
        "class": {
          "system": "http://terminology.hl7.org/CodeSystem/v3-ActCode",
          "code": "IMP",
          "display": "inpatient encounter",
          "userSelected": true
        },
        "type": [
          {
            "coding": [
              {
                "system": "http://snomed.info/sct",
                "code": "32485007"
              }
            ]
          }
        ],
        "subject": {
          "reference": "Patient/95560f62-a049-4f9a-979f-926fd87414c2"
        },
        "period": {
          "start": "2025-08-21T09:30:00.000+00:00",
          "end": "2025-12-19T10:30:00.000+00:00"
        },
        "length": {
          "value": 120,
          "unit": "days"
        },
        "diagnosis": [
          {
            "condition": {
              "reference": "Condition/1f0d349b-f88b-43cb-ad1f-0c7707029510"
            },
            "use": {
              "coding": [
                {
                  "system": "http://terminology.hl7.org/CodeSystem/diagnosis-role",
                  "code": "billing",
                  "display": "Billing"
                }
              ]
            },
            "rank": 2
          }
        ]
      },
      "request": {
        "method": "PUT",
        "url": "Encounter/0096488a-67cd-42eb-aa70-394e87ba3e7e"
      }
    },
    {
      "fullUrl": "https://madie.cms.gov/Condition/1f0d349b-f88b-43cb-ad1f-0c7707029510",
      "resource": {
        "resourceType": "Condition",
        "id": "1f0d349b-f88b-43cb-ad1f-0c7707029510",
        "meta": {
          "profile": [
            "http://hl7.org/fhir/us/qicore/StructureDefinition/qicore-condition"
          ]
        },
        "clinicalStatus": {
          "coding": [
            {
              "system": "http://terminology.hl7.org/CodeSystem/condition-clinical",
              "code": "active"
            }
          ]
        },
        "verificationStatus": {
          "coding": [
            {
              "system": "http://terminology.hl7.org/CodeSystem/condition-ver-status",
              "code": "confirmed"
            }
          ]
        },
        "category": [
          {
            "coding": [
              {
                "system": "http://terminology.hl7.org/CodeSystem/condition-category",
                "code": "encounter-diagnosis",
                "display": "Encounter Diagnosis"
              }
            ]
          }
        ],
        "code": {
          "coding": [
            {
              "system": "http://snomed.info/sct",
              "version": "2020-09",
              "code": "111297002",
              "display": "Nonparalytic stroke (disorder)",
              "userSelected": true
            }
          ]
        },
        "subject": {
          "reference": "Patient/95560f62-a049-4f9a-979f-926fd87414c2"
        },
        "recordedDate": "2025-07-15T08:00:00.000+00:00"
      },
      "request": {
        "method": "PUT",
        "url": "Condition/1f0d349b-f88b-43cb-ad1f-0c7707029510"
      }
    },
    {
      "fullUrl": "https://madie.cms.gov/Coverage/87e869a4-7cb4-4223-a1fe-d283cb45ba63",
      "resource": {
        "resourceType": "Coverage",
        "id": "87e869a4-7cb4-4223-a1fe-d283cb45ba63",
        "meta": {
          "profile": [
            "http://hl7.org/fhir/us/qicore/StructureDefinition/qicore-coverage"
          ]
        },
        "status": "active",
        "beneficiary": {
          "reference": "Patient/95560f62-a049-4f9a-979f-926fd87414c2"
        },
        "payor": [
          {
            "reference": "Organization/9b810e2d-d5ad-46b8-a9e5-3d40eae41c83"
          }
        ]
      },
      "request": {
        "method": "PUT",
        "url": "Coverage/87e869a4-7cb4-4223-a1fe-d283cb45ba63"
      }
    },
    {
      "fullUrl": "https://madie.cms.gov/Organization/9b810e2d-d5ad-46b8-a9e5-3d40eae41c83",
      "resource": {
        "resourceType": "Organization",
        "id": "9b810e2d-d5ad-46b8-a9e5-3d40eae41c83",
        "meta": {
          "profile": [
            "http://hl7.org/fhir/us/qicore/StructureDefinition/qicore-organization"
          ]
        },
        "identifier": [
          {
            "use": "temp",
            "system": "urn:oid:2.16.840.1.113883.4.4",
            "value": "21-3259825"
          }
        ],
        "active": true,
        "type": [
          {
            "coding": [
              {
                "system": "http://terminology.hl7.org/CodeSystem/organization-type",
                "code": "pay",
                "display": "Payer"
              }
            ]
          }
        ],
        "name": "Blue Cross Blue Shield of Texas",
        "telecom": [
          {
            "system": "phone",
            "value": "(+1) 972-766-6900"
          }
        ],
        "address": [
          {
            "use": "billing",
            "type": "postal",
            "line": [
              "P.O. Box 660044"
            ],
            "city": "Dallas",
            "state": "TX",
            "postalCode": "75266-0044",
            "country": "USA"
          }
        ]
      },
      "request": {
        "method": "PUT",
        "url": "Organization/9b810e2d-d5ad-46b8-a9e5-3d40eae41c83"
      }
    },
    {
      "fullUrl": "https://madie.cms.gov/MeasureReport/8976951c-cbed-45e4-8cac-875847e76139",
      "resource": {
        "resourceType": "MeasureReport",
        "id": "8976951c-cbed-45e4-8cac-875847e76139",
        "meta": {
          "profile": [
            "http://hl7.org/fhir/us/cqfmeasures/StructureDefinition/test-case-cqfm"
          ]
        },
        "contained": [
          {
            "resourceType": "Parameters",
            "id": "105a4984-b979-487b-84d9-f8eed2f55fc7-parameters",
            "parameter": [
              {
                "name": "subject",
                "valueString": "95560f62-a049-4f9a-979f-926fd87414c2"
              }
            ]
          }
        ],
        "extension": [
          {
            "url": "http://hl7.org/fhir/us/cqfmeasures/StructureDefinition/cqfm-inputParameters",
            "valueReference": {
              "reference": "#105a4984-b979-487b-84d9-f8eed2f55fc7-parameters"
            }
          },
          {
            "url": "http://hl7.org/fhir/us/cqfmeasures/StructureDefinition/cqfm-testCaseDescription",
            "valueMarkdown": "Patient is 18 with Non-Elective Inpatient Encounter (LOS 120 days) ends during MP with no principal diagnosis of stroke, rank of 2\n"
          }
        ],
        "modifierExtension": [
          {
            "url": "http://hl7.org/fhir/us/cqfmeasures/StructureDefinition/cqfm-isTestCase",
            "valueBoolean": true
          }
        ],
        "status": "complete",
        "type": "individual",
        "measure": "https://madie.cms.gov/Measure/DischargedonAntithromboticTherapyFHIR",
        "period": {
          "start": "2025-01-01",
          "end": "2025-12-31"
        },
        "group": [
          {
            "population": [
              {
                "code": {
                  "coding": [
                    {
                      "system": "http://terminology.hl7.org/CodeSystem/measure-population",
                      "code": "initial-population",
                      "display": "Initial Population"
                    }
                  ]
                },
                "count": 0
              },
              {
                "code": {
                  "coding": [
                    {
                      "system": "http://terminology.hl7.org/CodeSystem/measure-population",
                      "code": "denominator",
                      "display": "Denominator"
                    }
                  ]
                },
                "count": 0
              },
              {
                "code": {
                  "coding": [
                    {
                      "system": "http://terminology.hl7.org/CodeSystem/measure-population",
                      "code": "denominator-exclusion",
                      "display": "Denominator Exclusion"
                    }
                  ]
                },
                "count": 0
              },
              {
                "code": {
                  "coding": [
                    {
                      "system": "http://terminology.hl7.org/CodeSystem/measure-population",
                      "code": "numerator",
                      "display": "Numerator"
                    }
                  ]
                },
                "count": 0
              },
              {
                "code": {
                  "coding": [
                    {
                      "system": "http://terminology.hl7.org/CodeSystem/measure-population",
                      "code": "denominator-exception",
                      "display": "Denominator Exception"
                    }
                  ]
                },
                "count": 0
              }
            ]
          }
        ],
        "evaluatedResource": [
          {
            "reference": "Patient/95560f62-a049-4f9a-979f-926fd87414c2"
          },
          {
            "reference": "Encounter/0096488a-67cd-42eb-aa70-394e87ba3e7e"
          },
          {
            "reference": "Condition/1f0d349b-f88b-43cb-ad1f-0c7707029510"
          },
          {
            "reference": "Coverage/87e869a4-7cb4-4223-a1fe-d283cb45ba63"
          },
          {
            "reference": "Organization/9b810e2d-d5ad-46b8-a9e5-3d40eae41c83"
          }
        ]
      },
      "request": {
        "method": "PUT",
        "url": "MeasureReport/8976951c-cbed-45e4-8cac-875847e76139"
      }
    }
  ]
}