{
  "resourceType": "Bundle",
  "id": "633b3f9f0968f80122503ce2",
  "type": "transaction",
  "entry": [
    {
      "fullUrl": "https://madie.cms.gov/Patient/b84fe501-79ac-4d92-a1e6-476381c9fc51",
      "resource": {
        "resourceType": "Patient",
        "id": "b84fe501-79ac-4d92-a1e6-476381c9fc51",
        "meta": {
          "profile": [
            "http://hl7.org/fhir/us/qicore/StructureDefinition/qicore-patient"
          ]
        },
        "text": {
          "status": "generated",
          "div": "<div xmlns=\"http://www.w3.org/1999/xhtml\"><div class=\"hapiHeaderText\">LastAssPrfEGAResultQuantityEQ21 <b>DENOMPASS </b></div><table class=\"hapiPropertyTable\"><tbody><tr><td>Date of birth</td><td><span>01 February 2004</span></td></tr></tbody></table></div>"
        },
        "extension": [
          {
            "url": "http://hl7.org/fhir/us/core/StructureDefinition/us-core-race",
            "extension": [
              {
                "url": "ombCategory",
                "valueCoding": {
                  "system": "urn:oid:2.16.840.1.113883.6.238",
                  "code": "1002-5",
                  "display": "American Indian or Alaska Native",
                  "userSelected": true
                }
              },
              {
                "url": "text",
                "valueString": "American Indian or Alaska Native"
              }
            ]
          },
          {
            "url": "http://hl7.org/fhir/us/core/StructureDefinition/us-core-ethnicity",
            "extension": [
              {
                "url": "ombCategory",
                "valueCoding": {
                  "system": "urn:oid:2.16.840.1.113883.6.238",
                  "code": "2135-2",
                  "display": "Hispanic or Latino",
                  "userSelected": true
                }
              },
              {
                "url": "text",
                "valueString": "Hispanic or Latino"
              }
            ]
          }
        ],
        "identifier": [
          {
            "type": {
              "coding": [
                {
                  "system": "http://terminology.hl7.org/CodeSystem/v2-0203",
                  "code": "MR"
                }
              ]
            },
            "system": "https://bonnie-fhir.healthit.gov/",
            "value": "633b3f9f0968f80122503ce2"
          }
        ],
        "active": true,
        "name": [
          {
            "use": "usual",
            "family": "DENOMPass",
            "given": [
              "LastAssPrfEGAResultQuantityEQ21"
            ]
          }
        ],
        "gender": "female",
        "birthDate": "2016-02-01"
      },
      "request": {
        "method": "PUT",
        "url": "Patient/b84fe501-79ac-4d92-a1e6-476381c9fc51"
      }
    },
    {
      "fullUrl": "https://madie.cms.gov/Observation/6adf0714-96f5-429c-83d6-07b91fe4ee24",
      "resource": {
        "resourceType": "Observation",
        "id": "6adf0714-96f5-429c-83d6-07b91fe4ee24",
        "meta": {
          "profile": [
            "http://hl7.org/fhir/us/qicore/StructureDefinition/qicore-observation"
          ]
        },
        "status": "final",
        "category": [
          {
            "coding": [
              {
                "system": "http://terminology.hl7.org/CodeSystem/observation-category",
                "code": "exam",
                "display": "exam",
                "userSelected": true
              }
            ]
          }
        ],
        "code": {
          "coding": [
            {
              "system": "http://loinc.org",
              "code": "93857-1"
            }
          ]
        },
        "subject": {
          "reference": "Patient/b84fe501-79ac-4d92-a1e6-476381c9fc51"
        },
        "effectiveDateTime": "2024-02-01T08:00:00.000+00:00",
        "valueDateTime": "2024-02-01T08:00:00+00:00"
      },
      "request": {
        "method": "PUT",
        "url": "Observation/6adf0714-96f5-429c-83d6-07b91fe4ee24"
      }
    },
    {
      "fullUrl": "https://madie.cms.gov/Observation/36f454fc-96c5-4408-b5f3-951eece7c625",
      "resource": {
        "resourceType": "Observation",
        "id": "36f454fc-96c5-4408-b5f3-951eece7c625",
        "meta": {
          "profile": [
            "http://hl7.org/fhir/us/qicore/StructureDefinition/qicore-observation"
          ]
        },
        "status": "final",
        "category": [
          {
            "coding": [
              {
                "system": "http://terminology.hl7.org/CodeSystem/observation-category",
                "code": "exam",
                "display": "exam",
                "userSelected": true
              }
            ]
          }
        ],
        "code": {
          "coding": [
            {
              "system": "http://loinc.org",
              "code": "11884-4"
            }
          ]
        },
        "subject": {
          "reference": "Patient/b84fe501-79ac-4d92-a1e6-476381c9fc51"
        },
        "effectiveDateTime": "2024-02-01T08:00:00.000+00:00",
        "valueQuantity": {
          "value": 20,
          "unit": "wk"
        }
      },
      "request": {
        "method": "PUT",
        "url": "Observation/36f454fc-96c5-4408-b5f3-951eece7c625"
      }
    },
    {
      "fullUrl": "https://madie.cms.gov/Encounter/d3d28916-358d-46c6-86de-903de0f1731f",
      "resource": {
        "resourceType": "Encounter",
        "id": "d3d28916-358d-46c6-86de-903de0f1731f",
        "meta": {
          "profile": [
            "http://hl7.org/fhir/us/qicore/StructureDefinition/qicore-encounter"
          ]
        },
        "status": "finished",
        "class": {
          "system": "http://terminology.hl7.org/CodeSystem/v3-ActCode",
          "code": "IMP",
          "display": "inpatient encounter"
        },
        "type": [
          {
            "coding": [
              {
                "system": "http://snomed.info/sct",
                "code": "183452005"
              }
            ]
          }
        ],
        "subject": {
          "reference": "Patient/b84fe501-79ac-4d92-a1e6-476381c9fc51"
        },
        "period": {
          "start": "2024-02-01T08:00:00.000Z",
          "end": "2024-02-05T08:15:00.000Z"
        }
      },
      "request": {
        "method": "PUT",
        "url": "Encounter/d3d28916-358d-46c6-86de-903de0f1731f"
      }
    },
    {
      "fullUrl": "https://madie.cms.gov/Procedure/954aff25-ec1d-4243-950a-e05ab883aea6",
      "resource": {
        "resourceType": "Procedure",
        "id": "954aff25-ec1d-4243-950a-e05ab883aea6",
        "meta": {
          "profile": [
            "http://hl7.org/fhir/us/qicore/StructureDefinition/qicore-procedure"
          ]
        },
        "extension": [
          {
            "url": "http://hl7.org/fhir/us/qicore/StructureDefinition/qicore-recorded",
            "valueDateTime": "2013-04-05T09:35:00-04:00"
          }
        ],
        "status": "completed",
        "code": {
          "coding": [
            {
              "system": "http://snomed.info/sct",
              "code": "10745001"
            }
          ]
        },
        "subject": {
          "reference": "Patient/b84fe501-79ac-4d92-a1e6-476381c9fc51"
        },
        "performedPeriod": {
          "start": "2024-02-01T08:00:00.000Z",
          "end": "2024-02-05T08:15:00.000Z"
        }
      },
      "request": {
        "method": "PUT",
        "url": "Procedure/954aff25-ec1d-4243-950a-e05ab883aea6"
      }
    },
    {
      "fullUrl": "https://madie.cms.gov/Coverage/923505d8-1f06-4644-b0b6-84c13c072d59",
      "resource": {
        "resourceType": "Coverage",
        "id": "923505d8-1f06-4644-b0b6-84c13c072d59",
        "meta": {
          "profile": [
            "http://hl7.org/fhir/us/qicore/StructureDefinition/qicore-coverage"
          ]
        },
        "status": "active",
        "beneficiary": {
          "reference": "Patient/b84fe501-79ac-4d92-a1e6-476381c9fc51"
        },
        "payor": [
          {
            "reference": "Organization/ec87243f-5d4e-430f-8d92-c2113685a786"
          }
        ]
      },
      "request": {
        "method": "PUT",
        "url": "Coverage/923505d8-1f06-4644-b0b6-84c13c072d59"
      }
    },
    {
      "fullUrl": "https://madie.cms.gov/Organization/ec87243f-5d4e-430f-8d92-c2113685a786",
      "resource": {
        "resourceType": "Organization",
        "id": "ec87243f-5d4e-430f-8d92-c2113685a786",
        "meta": {
          "profile": [
            "http://hl7.org/fhir/us/qicore/StructureDefinition/qicore-organization"
          ]
        },
        "identifier": [
          {
            "use": "temp",
            "system": "urn:oid:2.16.840.1.113883.4.4",
            "value": "21-3259825"
          }
        ],
        "active": true,
        "type": [
          {
            "coding": [
              {
                "system": "http://terminology.hl7.org/CodeSystem/organization-type",
                "code": "pay",
                "display": "Payer"
              }
            ]
          }
        ],
        "name": "Blue Cross Blue Shield of Texas",
        "telecom": [
          {
            "system": "phone",
            "value": "(+1) 972-766-6900"
          }
        ],
        "address": [
          {
            "use": "billing",
            "type": "postal",
            "line": [
              "P.O. Box 660044"
            ],
            "city": "Dallas",
            "state": "TX",
            "postalCode": "75266-0044",
            "country": "USA"
          }
        ]
      },
      "request": {
        "method": "PUT",
        "url": "Organization/ec87243f-5d4e-430f-8d92-c2113685a786"
      }
    },
    {
      "fullUrl": "https://madie.cms.gov/Practitioner/8bdad630-7c45-4118-acf1-e299d30809d4",
      "resource": {
        "resourceType": "Practitioner",
        "id": "8bdad630-7c45-4118-acf1-e299d30809d4",
        "identifier": [
          {
            "system": "http://hl7.org/fhir/sid/us-npi",
            "value": "123456"
          }
        ],
        "name": [
          {
            "family": "Evil",
            "prefix": [
              "Dr"
            ]
          }
        ]
      },
      "request": {
        "method": "PUT",
        "url": "Practitioner/8bdad630-7c45-4118-acf1-e299d30809d4"
      }
    },
    {
      "fullUrl": "https://madie.cms.gov/MeasureReport/2b263293-a0f2-4a55-9808-853143d1b788",
      "resource": {
        "resourceType": "MeasureReport",
        "id": "2b263293-a0f2-4a55-9808-853143d1b788",
        "meta": {
          "profile": [
            "http://hl7.org/fhir/us/cqfmeasures/StructureDefinition/test-case-cqfm"
          ]
        },
        "contained": [
          {
            "resourceType": "Parameters",
            "id": "7095be9a-aa2f-4d6b-a856-43d734d231f3-parameters",
            "parameter": [
              {
                "name": "subject",
                "valueString": "b84fe501-79ac-4d92-a1e6-476381c9fc51"
              }
            ]
          }
        ],
        "extension": [
          {
            "url": "http://hl7.org/fhir/us/cqfmeasures/StructureDefinition/cqfm-inputParameters",
            "valueReference": {
              "reference": "#7095be9a-aa2f-4d6b-a856-43d734d231f3-parameters"
            }
          },
          {
            "url": "http://hl7.org/fhir/us/cqfmeasures/StructureDefinition/cqfm-testCaseDescription",
            "valueMarkdown": "Last Assessment Performed EGA = 21 weeks\n"
          }
        ],
        "modifierExtension": [
          {
            "url": "http://hl7.org/fhir/us/cqfmeasures/StructureDefinition/cqfm-isTestCase",
            "valueBoolean": true
          }
        ],
        "status": "complete",
        "type": "individual",
        "measure": "https://madie.cms.gov/Measure/SevereObstetricComplicationsFHIR",
        "period": {
          "start": "2024-01-01",
          "end": "2024-12-31"
        },
        "group": [
          {
            "population": [
              {
                "code": {
                  "coding": [
                    {
                      "system": "http://terminology.hl7.org/CodeSystem/measure-population",
                      "code": "initial-population",
                      "display": "Initial Population"
                    }
                  ]
                },
                "count": 1
              },
              {
                "code": {
                  "coding": [
                    {
                      "system": "http://terminology.hl7.org/CodeSystem/measure-population",
                      "code": "denominator",
                      "display": "Denominator"
                    }
                  ]
                },
                "count": 1
              },
              {
                "code": {
                  "coding": [
                    {
                      "system": "http://terminology.hl7.org/CodeSystem/measure-population",
                      "code": "denominator-exclusion",
                      "display": "Denominator Exclusion"
                    }
                  ]
                },
                "count": 0
              },
              {
                "code": {
                  "coding": [
                    {
                      "system": "http://terminology.hl7.org/CodeSystem/measure-population",
                      "code": "numerator",
                      "display": "Numerator"
                    }
                  ]
                },
                "count": 0
              }
            ]
          }
        ],
        "evaluatedResource": [
          {
            "reference": "Patient/b84fe501-79ac-4d92-a1e6-476381c9fc51"
          },
          {
            "reference": "Observation/6adf0714-96f5-429c-83d6-07b91fe4ee24"
          },
          {
            "reference": "Observation/36f454fc-96c5-4408-b5f3-951eece7c625"
          },
          {
            "reference": "Encounter/d3d28916-358d-46c6-86de-903de0f1731f"
          },
          {
            "reference": "Procedure/954aff25-ec1d-4243-950a-e05ab883aea6"
          },
          {
            "reference": "Coverage/923505d8-1f06-4644-b0b6-84c13c072d59"
          },
          {
            "reference": "Organization/ec87243f-5d4e-430f-8d92-c2113685a786"
          },
          {
            "reference": "Practitioner/8bdad630-7c45-4118-acf1-e299d30809d4"
          }
        ]
      },
      "request": {
        "method": "PUT",
        "url": "MeasureReport/2b263293-a0f2-4a55-9808-853143d1b788"
      }
    }
  ]
}