{
  "resourceType": "Bundle",
  "id": "633b3f9e0968f80122503ccf",
  "type": "transaction",
  "entry": [
    {
      "fullUrl": "https://madie.cms.gov/Patient/3c274019-ab07-4e3d-8761-07803d91acba",
      "resource": {
        "resourceType": "Patient",
        "id": "3c274019-ab07-4e3d-8761-07803d91acba",
        "meta": {
          "profile": [
            "http://hl7.org/fhir/us/qicore/StructureDefinition/qicore-patient"
          ]
        },
        "text": {
          "status": "generated",
          "div": "<div xmlns=\"http://www.w3.org/1999/xhtml\"><div class=\"hapiHeaderText\">AssPrfDELRsltDtTime_EQIPStartPlus1Min <b>DENOMPASS </b></div><table class=\"hapiPropertyTable\"><tbody><tr><td>Date of birth</td><td><span>01 February 2004</span></td></tr></tbody></table></div>"
        },
        "extension": [
          {
            "url": "http://hl7.org/fhir/us/core/StructureDefinition/us-core-race",
            "extension": [
              {
                "url": "ombCategory",
                "valueCoding": {
                  "system": "urn:oid:2.16.840.1.113883.6.238",
                  "code": "1002-5",
                  "display": "American Indian or Alaska Native",
                  "userSelected": true
                }
              },
              {
                "url": "text",
                "valueString": "American Indian or Alaska Native"
              }
            ]
          },
          {
            "url": "http://hl7.org/fhir/us/core/StructureDefinition/us-core-ethnicity",
            "extension": [
              {
                "url": "ombCategory",
                "valueCoding": {
                  "system": "urn:oid:2.16.840.1.113883.6.238",
                  "code": "2135-2",
                  "display": "Hispanic or Latino",
                  "userSelected": true
                }
              },
              {
                "url": "text",
                "valueString": "Hispanic or Latino"
              }
            ]
          }
        ],
        "identifier": [
          {
            "type": {
              "coding": [
                {
                  "system": "http://terminology.hl7.org/CodeSystem/v2-0203",
                  "code": "MR"
                }
              ]
            },
            "system": "https://bonnie-fhir.healthit.gov/",
            "value": "633b3f9e0968f80122503ccf"
          }
        ],
        "active": true,
        "name": [
          {
            "use": "usual",
            "family": "DENOMPass",
            "given": [
              "AssPrfDELRsltDtTime_EQIPStartPlus1Min"
            ]
          }
        ],
        "gender": "female",
        "birthDate": "2004-02-01"
      },
      "request": {
        "method": "PUT",
        "url": "Patient/3c274019-ab07-4e3d-8761-07803d91acba"
      }
    },
    {
      "fullUrl": "https://madie.cms.gov/Observation/b124c316-7396-42de-ab34-cd88dac79fc4",
      "resource": {
        "resourceType": "Observation",
        "id": "b124c316-7396-42de-ab34-cd88dac79fc4",
        "meta": {
          "profile": [
            "http://hl7.org/fhir/us/qicore/StructureDefinition/qicore-observation"
          ]
        },
        "status": "final",
        "category": [
          {
            "coding": [
              {
                "system": "http://terminology.hl7.org/CodeSystem/observation-category",
                "code": "exam",
                "display": "Exam",
                "userSelected": true
              }
            ]
          }
        ],
        "code": {
          "coding": [
            {
              "system": "http://loinc.org",
              "code": "93857-1"
            }
          ]
        },
        "subject": {
          "reference": "Patient/3c274019-ab07-4e3d-8761-07803d91acba"
        },
        "effectiveDateTime": "2024-02-01T08:01:00.000+00:00",
        "valueDateTime": "2024-02-01T08:01:00+00:00"
      },
      "request": {
        "method": "PUT",
        "url": "Observation/b124c316-7396-42de-ab34-cd88dac79fc4"
      }
    },
    {
      "fullUrl": "https://madie.cms.gov/Observation/6ad76339-0307-496d-8182-77a9b1ca5842",
      "resource": {
        "resourceType": "Observation",
        "id": "6ad76339-0307-496d-8182-77a9b1ca5842",
        "meta": {
          "profile": [
            "http://hl7.org/fhir/us/qicore/StructureDefinition/qicore-observation"
          ]
        },
        "status": "final",
        "category": [
          {
            "coding": [
              {
                "system": "http://terminology.hl7.org/CodeSystem/observation-category",
                "code": "exam",
                "display": "Exam",
                "userSelected": true
              }
            ]
          }
        ],
        "code": {
          "coding": [
            {
              "system": "http://loinc.org",
              "code": "11778-8"
            }
          ]
        },
        "subject": {
          "reference": "Patient/3c274019-ab07-4e3d-8761-07803d91acba"
        },
        "effectiveDateTime": "2024-02-01T08:00:00.000+00:00",
        "valueDateTime": "2024-02-01T08:00:00.000+00:00"
      },
      "request": {
        "method": "PUT",
        "url": "Observation/6ad76339-0307-496d-8182-77a9b1ca5842"
      }
    },
    {
      "fullUrl": "https://madie.cms.gov/Encounter/5522d9a2-9fac-46bb-9c42-0a3721925017",
      "resource": {
        "resourceType": "Encounter",
        "id": "5522d9a2-9fac-46bb-9c42-0a3721925017",
        "meta": {
          "profile": [
            "http://hl7.org/fhir/us/qicore/StructureDefinition/qicore-encounter"
          ]
        },
        "status": "finished",
        "class": {
          "system": "http://terminology.hl7.org/CodeSystem/v3-ActCode",
          "code": "IMP",
          "display": "inpatient encounter"
        },
        "type": [
          {
            "coding": [
              {
                "system": "http://snomed.info/sct",
                "code": "183452005"
              }
            ]
          }
        ],
        "subject": {
          "reference": "Patient/3c274019-ab07-4e3d-8761-07803d91acba"
        },
        "period": {
          "start": "2024-02-01T08:00:00.000Z",
          "end": "2024-02-05T08:15:00.000Z"
        }
      },
      "request": {
        "method": "PUT",
        "url": "Encounter/5522d9a2-9fac-46bb-9c42-0a3721925017"
      }
    },
    {
      "fullUrl": "https://madie.cms.gov/Procedure/b742ad66-c21c-4873-b40f-a350eca6828b",
      "resource": {
        "resourceType": "Procedure",
        "id": "b742ad66-c21c-4873-b40f-a350eca6828b",
        "meta": {
          "profile": [
            "http://hl7.org/fhir/us/qicore/StructureDefinition/qicore-procedure"
          ]
        },
        "extension": [
          {
            "url": "http://hl7.org/fhir/us/qicore/StructureDefinition/qicore-recorded",
            "valueDateTime": "2013-04-05T09:35:00-04:00"
          }
        ],
        "status": "completed",
        "code": {
          "coding": [
            {
              "system": "http://snomed.info/sct",
              "code": "10745001"
            }
          ]
        },
        "subject": {
          "reference": "Patient/3c274019-ab07-4e3d-8761-07803d91acba"
        },
        "performedPeriod": {
          "start": "2024-02-01T08:00:00.000Z",
          "end": "2024-02-05T08:15:00.000Z"
        }
      },
      "request": {
        "method": "PUT",
        "url": "Procedure/b742ad66-c21c-4873-b40f-a350eca6828b"
      }
    },
    {
      "fullUrl": "https://madie.cms.gov/Coverage/98284f4b-949b-4e63-a4bc-bd4c2a9bd758",
      "resource": {
        "resourceType": "Coverage",
        "id": "98284f4b-949b-4e63-a4bc-bd4c2a9bd758",
        "meta": {
          "profile": [
            "http://hl7.org/fhir/us/qicore/StructureDefinition/qicore-coverage"
          ]
        },
        "status": "active",
        "beneficiary": {
          "reference": "Patient/3c274019-ab07-4e3d-8761-07803d91acba"
        },
        "payor": [
          {
            "reference": "Organization/6ea86820-5e13-4dd9-bffb-a43c5233cfff"
          }
        ]
      },
      "request": {
        "method": "PUT",
        "url": "Coverage/98284f4b-949b-4e63-a4bc-bd4c2a9bd758"
      }
    },
    {
      "fullUrl": "https://madie.cms.gov/Organization/6ea86820-5e13-4dd9-bffb-a43c5233cfff",
      "resource": {
        "resourceType": "Organization",
        "id": "6ea86820-5e13-4dd9-bffb-a43c5233cfff",
        "meta": {
          "profile": [
            "http://hl7.org/fhir/us/qicore/StructureDefinition/qicore-organization"
          ]
        },
        "identifier": [
          {
            "use": "temp",
            "system": "urn:oid:2.16.840.1.113883.4.4",
            "value": "21-3259825"
          }
        ],
        "active": true,
        "type": [
          {
            "coding": [
              {
                "system": "http://terminology.hl7.org/CodeSystem/organization-type",
                "code": "pay",
                "display": "Payer"
              }
            ]
          }
        ],
        "name": "Blue Cross Blue Shield of Texas",
        "telecom": [
          {
            "system": "phone",
            "value": "(+1) 972-766-6900"
          }
        ],
        "address": [
          {
            "use": "billing",
            "type": "postal",
            "line": [
              "P.O. Box 660044"
            ],
            "city": "Dallas",
            "state": "TX",
            "postalCode": "75266-0044",
            "country": "USA"
          }
        ]
      },
      "request": {
        "method": "PUT",
        "url": "Organization/6ea86820-5e13-4dd9-bffb-a43c5233cfff"
      }
    },
    {
      "fullUrl": "https://madie.cms.gov/Practitioner/3a663845-6b02-49c6-a1b5-dfbeb0c27d03",
      "resource": {
        "resourceType": "Practitioner",
        "id": "3a663845-6b02-49c6-a1b5-dfbeb0c27d03",
        "identifier": [
          {
            "system": "http://hl7.org/fhir/sid/us-npi",
            "value": "123456"
          }
        ],
        "name": [
          {
            "family": "Evil",
            "prefix": [
              "Dr"
            ]
          }
        ]
      },
      "request": {
        "method": "PUT",
        "url": "Practitioner/3a663845-6b02-49c6-a1b5-dfbeb0c27d03"
      }
    },
    {
      "fullUrl": "https://madie.cms.gov/MeasureReport/284d7299-4cdd-4bed-bec3-6dce67fdf897",
      "resource": {
        "resourceType": "MeasureReport",
        "id": "284d7299-4cdd-4bed-bec3-6dce67fdf897",
        "meta": {
          "profile": [
            "http://hl7.org/fhir/us/cqfmeasures/StructureDefinition/test-case-cqfm"
          ]
        },
        "contained": [
          {
            "resourceType": "Parameters",
            "id": "232b3fe9-321f-4b3d-84c9-0b59e45a3bd8-parameters",
            "parameter": [
              {
                "name": "subject",
                "valueString": "3c274019-ab07-4e3d-8761-07803d91acba"
              }
            ]
          }
        ],
        "extension": [
          {
            "url": "http://hl7.org/fhir/us/cqfmeasures/StructureDefinition/cqfm-inputParameters",
            "valueReference": {
              "reference": "#232b3fe9-321f-4b3d-84c9-0b59e45a3bd8-parameters"
            }
          },
          {
            "url": "http://hl7.org/fhir/us/cqfmeasures/StructureDefinition/cqfm-testCaseDescription",
            "valueMarkdown": "\"Result date/Time of delivery (based on assessment performed) is equal to encounter start plus one minute\n.\"\n"
          }
        ],
        "modifierExtension": [
          {
            "url": "http://hl7.org/fhir/us/cqfmeasures/StructureDefinition/cqfm-isTestCase",
            "valueBoolean": true
          }
        ],
        "status": "complete",
        "type": "individual",
        "measure": "https://madie.cms.gov/Measure/SevereObstetricComplicationsFHIR",
        "period": {
          "start": "2024-01-01",
          "end": "2024-12-31"
        },
        "group": [
          {
            "population": [
              {
                "code": {
                  "coding": [
                    {
                      "system": "http://terminology.hl7.org/CodeSystem/measure-population",
                      "code": "initial-population",
                      "display": "Initial Population"
                    }
                  ]
                },
                "count": 1
              },
              {
                "code": {
                  "coding": [
                    {
                      "system": "http://terminology.hl7.org/CodeSystem/measure-population",
                      "code": "denominator",
                      "display": "Denominator"
                    }
                  ]
                },
                "count": 1
              },
              {
                "code": {
                  "coding": [
                    {
                      "system": "http://terminology.hl7.org/CodeSystem/measure-population",
                      "code": "denominator-exclusion",
                      "display": "Denominator Exclusion"
                    }
                  ]
                },
                "count": 0
              },
              {
                "code": {
                  "coding": [
                    {
                      "system": "http://terminology.hl7.org/CodeSystem/measure-population",
                      "code": "numerator",
                      "display": "Numerator"
                    }
                  ]
                },
                "count": 0
              }
            ]
          }
        ],
        "evaluatedResource": [
          {
            "reference": "Patient/3c274019-ab07-4e3d-8761-07803d91acba"
          },
          {
            "reference": "Observation/b124c316-7396-42de-ab34-cd88dac79fc4"
          },
          {
            "reference": "Observation/6ad76339-0307-496d-8182-77a9b1ca5842"
          },
          {
            "reference": "Encounter/5522d9a2-9fac-46bb-9c42-0a3721925017"
          },
          {
            "reference": "Procedure/b742ad66-c21c-4873-b40f-a350eca6828b"
          },
          {
            "reference": "Coverage/98284f4b-949b-4e63-a4bc-bd4c2a9bd758"
          },
          {
            "reference": "Organization/6ea86820-5e13-4dd9-bffb-a43c5233cfff"
          },
          {
            "reference": "Practitioner/3a663845-6b02-49c6-a1b5-dfbeb0c27d03"
          }
        ]
      },
      "request": {
        "method": "PUT",
        "url": "MeasureReport/284d7299-4cdd-4bed-bec3-6dce67fdf897"
      }
    }
  ]
}