{
  "resourceType": "Bundle",
  "id": "6356dca654e383debade75aa",
  "type": "transaction",
  "entry": [
    {
      "fullUrl": "https://madie.cms.gov/Patient/c607db94-cfc1-4174-bbbc-b66c38101270",
      "resource": {
        "resourceType": "Patient",
        "id": "c607db94-cfc1-4174-bbbc-b66c38101270",
        "meta": {
          "profile": [
            "http://hl7.org/fhir/us/qicore/StructureDefinition/qicore-patient"
          ]
        },
        "text": {
          "status": "generated",
          "div": "<div xmlns=\"http://www.w3.org/1999/xhtml\"><div class=\"hapiHeaderText\">RISKDXEQPreTermBirthEGAEQ40Weeks <b>RISKFail </b></div><table class=\"hapiPropertyTable\"><tbody><tr><td>Date of birth</td><td><span>01 February 2004</span></td></tr></tbody></table></div>"
        },
        "extension": [
          {
            "url": "http://hl7.org/fhir/us/core/StructureDefinition/us-core-race",
            "extension": [
              {
                "url": "ombCategory",
                "valueCoding": {
                  "system": "urn:oid:2.16.840.1.113883.6.238",
                  "code": "1002-5",
                  "display": "American Indian or Alaska Native",
                  "userSelected": true
                }
              },
              {
                "url": "text",
                "valueString": "American Indian or Alaska Native"
              }
            ]
          },
          {
            "url": "http://hl7.org/fhir/us/core/StructureDefinition/us-core-ethnicity",
            "extension": [
              {
                "url": "ombCategory",
                "valueCoding": {
                  "system": "urn:oid:2.16.840.1.113883.6.238",
                  "code": "2135-2",
                  "display": "Hispanic or Latino",
                  "userSelected": true
                }
              },
              {
                "url": "text",
                "valueString": "Hispanic or Latino"
              }
            ]
          }
        ],
        "identifier": [
          {
            "type": {
              "coding": [
                {
                  "system": "http://terminology.hl7.org/CodeSystem/v2-0203",
                  "code": "MR"
                }
              ]
            },
            "system": "https://bonnie-fhir.healthit.gov/",
            "value": "6356dca654e383debade75aa"
          }
        ],
        "active": true,
        "name": [
          {
            "use": "usual",
            "family": "RISKFail",
            "given": [
              "RISKDXEQPreTermBirthEGAEQ40Weeks"
            ]
          }
        ],
        "gender": "female",
        "birthDate": "2004-02-01"
      },
      "request": {
        "method": "PUT",
        "url": "Patient/c607db94-cfc1-4174-bbbc-b66c38101270"
      }
    },
    {
      "fullUrl": "https://madie.cms.gov/Observation/6e901912-46e6-408a-9abf-f0322d04112d",
      "resource": {
        "resourceType": "Observation",
        "id": "6e901912-46e6-408a-9abf-f0322d04112d",
        "meta": {
          "profile": [
            "http://hl7.org/fhir/us/qicore/StructureDefinition/qicore-observation"
          ]
        },
        "status": "final",
        "category": [
          {
            "coding": [
              {
                "system": "http://terminology.hl7.org/CodeSystem/observation-category",
                "code": "exam",
                "display": "exam",
                "userSelected": true
              }
            ]
          }
        ],
        "code": {
          "coding": [
            {
              "system": "http://loinc.org",
              "code": "93857-1"
            }
          ]
        },
        "subject": {
          "reference": "Patient/c607db94-cfc1-4174-bbbc-b66c38101270"
        },
        "effectiveDateTime": "2024-02-01T08:00:00.000+00:00",
        "valueDateTime": "2024-02-01T08:00:00+00:00"
      },
      "request": {
        "method": "PUT",
        "url": "Observation/6e901912-46e6-408a-9abf-f0322d04112d"
      }
    },
    {
      "fullUrl": "https://madie.cms.gov/Observation/8b488182-37e1-4bb5-ab14-473fe736bf6c",
      "resource": {
        "resourceType": "Observation",
        "id": "8b488182-37e1-4bb5-ab14-473fe736bf6c",
        "meta": {
          "profile": [
            "http://hl7.org/fhir/us/qicore/StructureDefinition/qicore-observation"
          ]
        },
        "status": "final",
        "category": [
          {
            "coding": [
              {
                "system": "http://terminology.hl7.org/CodeSystem/observation-category",
                "code": "exam",
                "display": "exam",
                "userSelected": true
              }
            ]
          }
        ],
        "code": {
          "coding": [
            {
              "system": "http://loinc.org",
              "code": "11884-4"
            }
          ]
        },
        "subject": {
          "reference": "Patient/c607db94-cfc1-4174-bbbc-b66c38101270"
        },
        "effectiveDateTime": "2024-02-01T08:00:00.000+00:00",
        "valueQuantity": {
          "value": 40,
          "system": "http://unitsofmeasure.org",
          "code": "wk"
        }
      },
      "request": {
        "method": "PUT",
        "url": "Observation/8b488182-37e1-4bb5-ab14-473fe736bf6c"
      }
    },
    {
      "fullUrl": "https://madie.cms.gov/Encounter/eec7825b-c625-4876-84d9-0b1aa8f0105a",
      "resource": {
        "resourceType": "Encounter",
        "id": "eec7825b-c625-4876-84d9-0b1aa8f0105a",
        "meta": {
          "profile": [
            "http://hl7.org/fhir/us/qicore/StructureDefinition/qicore-encounter"
          ]
        },
        "status": "finished",
        "class": {
          "system": "http://terminology.hl7.org/CodeSystem/v3-ActCode",
          "code": "IMP",
          "display": "inpatient encounter"
        },
        "type": [
          {
            "coding": [
              {
                "system": "http://snomed.info/sct",
                "code": "183452005"
              }
            ]
          }
        ],
        "subject": {
          "reference": "Patient/c607db94-cfc1-4174-bbbc-b66c38101270"
        },
        "period": {
          "start": "2024-02-01T08:00:00.000Z",
          "end": "2024-02-05T08:15:00.000Z"
        },
        "diagnosis": [
          {
            "extension": [
              {
                "url": "http://hl7.org/fhir/us/qicore/StructureDefinition/qicore-encounter-diagnosisPresentOnAdmission",
                "valueCodeableConcept": {
                  "coding": [
                    {
                      "system": "https://www.cms.gov/Medicare/Medicare-Fee-for-Service-Payment/HospitalAcqCond/Coding",
                      "code": "Y"
                    }
                  ]
                }
              }
            ],
            "condition": {
              "reference": "Condition/3dcfd85a-240a-44dc-b636-1315480ee61f"
            }
          }
        ]
      },
      "request": {
        "method": "PUT",
        "url": "Encounter/eec7825b-c625-4876-84d9-0b1aa8f0105a"
      }
    },
    {
      "fullUrl": "https://madie.cms.gov/Procedure/1f7b02d0-2172-4875-914a-cbdabebfa185",
      "resource": {
        "resourceType": "Procedure",
        "id": "1f7b02d0-2172-4875-914a-cbdabebfa185",
        "meta": {
          "profile": [
            "http://hl7.org/fhir/us/qicore/StructureDefinition/qicore-procedure"
          ]
        },
        "extension": [
          {
            "url": "http://hl7.org/fhir/us/qicore/StructureDefinition/qicore-recorded",
            "valueDateTime": "2013-04-05T09:35:00-04:00"
          }
        ],
        "status": "completed",
        "code": {
          "coding": [
            {
              "system": "http://snomed.info/sct",
              "code": "10745001"
            }
          ]
        },
        "subject": {
          "reference": "Patient/c607db94-cfc1-4174-bbbc-b66c38101270"
        },
        "performedPeriod": {
          "start": "2024-02-01T08:00:00.000Z",
          "end": "2024-02-05T08:15:00.000Z"
        }
      },
      "request": {
        "method": "PUT",
        "url": "Procedure/1f7b02d0-2172-4875-914a-cbdabebfa185"
      }
    },
    {
      "fullUrl": "https://madie.cms.gov/Condition/3dcfd85a-240a-44dc-b636-1315480ee61f",
      "resource": {
        "resourceType": "Condition",
        "id": "3dcfd85a-240a-44dc-b636-1315480ee61f",
        "meta": {
          "profile": [
            "http://hl7.org/fhir/us/qicore/StructureDefinition/qicore-condition"
          ]
        },
        "category": [
          {
            "coding": [
              {
                "system": "http://terminology.hl7.org/CodeSystem/condition-category",
                "code": "encounter-diagnosis",
                "display": "Encounter Diagnosis"
              }
            ]
          }
        ],
        "code": {
          "coding": [
            {
              "system": "http://hl7.org/fhir/sid/icd-10-cm",
              "version": "2023",
              "code": "Z3A.20",
              "display": "20 weeks gestation",
              "userSelected": true
            }
          ]
        },
        "subject": {
          "reference": "Patient/c607db94-cfc1-4174-bbbc-b66c38101270"
        },
        "recordedDate": "2024-10-26T08:00:00.000+00:00"
      },
      "request": {
        "method": "PUT",
        "url": "Condition/3dcfd85a-240a-44dc-b636-1315480ee61f"
      }
    },
    {
      "fullUrl": "https://madie.cms.gov/Coverage/7d2d000d-1b4b-42dc-aa82-7faff4a74b31",
      "resource": {
        "resourceType": "Coverage",
        "id": "7d2d000d-1b4b-42dc-aa82-7faff4a74b31",
        "meta": {
          "profile": [
            "http://hl7.org/fhir/us/qicore/StructureDefinition/qicore-coverage"
          ]
        },
        "status": "active",
        "beneficiary": {
          "reference": "Patient/c607db94-cfc1-4174-bbbc-b66c38101270"
        },
        "payor": [
          {
            "reference": "Organization/751ba9f3-b411-40d4-8e96-e2f549ffd5d0"
          }
        ]
      },
      "request": {
        "method": "PUT",
        "url": "Coverage/7d2d000d-1b4b-42dc-aa82-7faff4a74b31"
      }
    },
    {
      "fullUrl": "https://madie.cms.gov/Organization/751ba9f3-b411-40d4-8e96-e2f549ffd5d0",
      "resource": {
        "resourceType": "Organization",
        "id": "751ba9f3-b411-40d4-8e96-e2f549ffd5d0",
        "meta": {
          "profile": [
            "http://hl7.org/fhir/us/qicore/StructureDefinition/qicore-organization"
          ]
        },
        "identifier": [
          {
            "use": "temp",
            "system": "urn:oid:2.16.840.1.113883.4.4",
            "value": "21-3259825"
          }
        ],
        "active": true,
        "type": [
          {
            "coding": [
              {
                "system": "http://terminology.hl7.org/CodeSystem/organization-type",
                "code": "pay",
                "display": "Payer"
              }
            ]
          }
        ],
        "name": "Blue Cross Blue Shield of Texas",
        "telecom": [
          {
            "system": "phone",
            "value": "(+1) 972-766-6900"
          }
        ],
        "address": [
          {
            "use": "billing",
            "type": "postal",
            "line": [
              "P.O. Box 660044"
            ],
            "city": "Dallas",
            "state": "TX",
            "postalCode": "75266-0044",
            "country": "USA"
          }
        ]
      },
      "request": {
        "method": "PUT",
        "url": "Organization/751ba9f3-b411-40d4-8e96-e2f549ffd5d0"
      }
    },
    {
      "fullUrl": "https://madie.cms.gov/Practitioner/fb273a6a-1d54-4d7d-bae0-06905b0e9ba6",
      "resource": {
        "resourceType": "Practitioner",
        "id": "fb273a6a-1d54-4d7d-bae0-06905b0e9ba6",
        "identifier": [
          {
            "system": "http://hl7.org/fhir/sid/us-npi",
            "value": "123456"
          }
        ],
        "name": [
          {
            "family": "Evil",
            "prefix": [
              "Dr"
            ]
          }
        ]
      },
      "request": {
        "method": "PUT",
        "url": "Practitioner/fb273a6a-1d54-4d7d-bae0-06905b0e9ba6"
      }
    },
    {
      "fullUrl": "https://madie.cms.gov/MeasureReport/29a3681f-af09-4e65-97ab-89ecd81237cd",
      "resource": {
        "resourceType": "MeasureReport",
        "id": "29a3681f-af09-4e65-97ab-89ecd81237cd",
        "meta": {
          "profile": [
            "http://hl7.org/fhir/us/cqfmeasures/StructureDefinition/test-case-cqfm"
          ]
        },
        "contained": [
          {
            "resourceType": "Parameters",
            "id": "7b736c8c-36bb-471e-a50d-fe56de48d308-parameters",
            "parameter": [
              {
                "name": "subject",
                "valueString": "c607db94-cfc1-4174-bbbc-b66c38101270"
              }
            ]
          }
        ],
        "extension": [
          {
            "url": "http://hl7.org/fhir/us/cqfmeasures/StructureDefinition/cqfm-inputParameters",
            "valueReference": {
              "reference": "#7b736c8c-36bb-471e-a50d-fe56de48d308-parameters"
            }
          },
          {
            "url": "http://hl7.org/fhir/us/cqfmeasures/StructureDefinition/cqfm-testCaseDescription",
            "valueMarkdown": "RISKDXEQPreTermBirth And EGAEQ40Weeks\n"
          }
        ],
        "modifierExtension": [
          {
            "url": "http://hl7.org/fhir/us/cqfmeasures/StructureDefinition/cqfm-isTestCase",
            "valueBoolean": true
          }
        ],
        "status": "complete",
        "type": "individual",
        "measure": "https://madie.cms.gov/Measure/SevereObstetricComplicationsFHIR",
        "period": {
          "start": "2024-01-01",
          "end": "2024-12-31"
        },
        "group": [
          {
            "population": [
              {
                "code": {
                  "coding": [
                    {
                      "system": "http://terminology.hl7.org/CodeSystem/measure-population",
                      "code": "initial-population",
                      "display": "Initial Population"
                    }
                  ]
                },
                "count": 1
              },
              {
                "code": {
                  "coding": [
                    {
                      "system": "http://terminology.hl7.org/CodeSystem/measure-population",
                      "code": "denominator",
                      "display": "Denominator"
                    }
                  ]
                },
                "count": 1
              },
              {
                "code": {
                  "coding": [
                    {
                      "system": "http://terminology.hl7.org/CodeSystem/measure-population",
                      "code": "denominator-exclusion",
                      "display": "Denominator Exclusion"
                    }
                  ]
                },
                "count": 0
              },
              {
                "code": {
                  "coding": [
                    {
                      "system": "http://terminology.hl7.org/CodeSystem/measure-population",
                      "code": "numerator",
                      "display": "Numerator"
                    }
                  ]
                },
                "count": 0
              }
            ]
          }
        ],
        "evaluatedResource": [
          {
            "reference": "Patient/c607db94-cfc1-4174-bbbc-b66c38101270"
          },
          {
            "reference": "Observation/6e901912-46e6-408a-9abf-f0322d04112d"
          },
          {
            "reference": "Observation/8b488182-37e1-4bb5-ab14-473fe736bf6c"
          },
          {
            "reference": "Encounter/eec7825b-c625-4876-84d9-0b1aa8f0105a"
          },
          {
            "reference": "Procedure/1f7b02d0-2172-4875-914a-cbdabebfa185"
          },
          {
            "reference": "Condition/3dcfd85a-240a-44dc-b636-1315480ee61f"
          },
          {
            "reference": "Coverage/7d2d000d-1b4b-42dc-aa82-7faff4a74b31"
          },
          {
            "reference": "Organization/751ba9f3-b411-40d4-8e96-e2f549ffd5d0"
          },
          {
            "reference": "Practitioner/fb273a6a-1d54-4d7d-bae0-06905b0e9ba6"
          }
        ]
      },
      "request": {
        "method": "PUT",
        "url": "MeasureReport/29a3681f-af09-4e65-97ab-89ecd81237cd"
      }
    }
  ]
}