{"resourceType":"Bundle","id":"tests-d6c485a9-091a-4249-b07c-cde042b9e671-bundle","type":"transaction","entry":[{"fullUrl":"https://madie.cms.gov/Patient/d6c485a9-091a-4249-b07c-cde042b9e671","resource":{"resourceType":"Patient","id":"d6c485a9-091a-4249-b07c-cde042b9e671","meta":{"profile":["http://hl7.org/fhir/us/qicore/StructureDefinition/qicore-patient"]},"text":{"status":"generated","div":"<div xmlns=\"http://www.w3.org/1999/xhtml\"><div class=\"hapiHeaderText\">ScreAtriRefNoasseDxNoCp2, , <b> </b></div><table class=\"hapiPropertyTable\"><tbody><tr><td>Identifier</td><td>ScreAtriRefNoasseDxNoCp2</td></tr><tr><td>Date of birth</td><td><span>14 May 1950</span></td></tr></tbody></table></div>"},"extension":[{"url":"http://hl7.org/fhir/us/core/StructureDefinition/us-core-race","extension":[{"url":"ombCategory","valueCoding":{"system":"urn:oid:2.16.840.1.113883.6.238","code":"2106-3","display":"White","userSelected":true}},{"url":"text","valueString":"White"}]},{"url":"http://hl7.org/fhir/us/core/StructureDefinition/us-core-ethnicity","extension":[{"url":"ombCategory","valueCoding":{"system":"urn:oid:2.16.840.1.113883.6.238","code":"2186-5","display":"Not Hispanic or Latino","userSelected":true}},{"url":"text","valueString":"Not Hispanic or Latino"}]}],"identifier":[{"type":{"coding":[{"system":"http://terminology.hl7.org/CodeSystem/v2-0203","code":"MR"}]},"system":"https://madie.cms.gov/","value":"ScreAtriRefNoasseDxNoCp2"}],"active":true,"name":[{"use":"usual","text":"ScreAtriRefNoasseDxNoCp2","family":"OCCURPass2","given":["ScreAtriRefNoasseDxNoCp2DENOMPass2"]}],"gender":"female","birthDate":"1953-01-01","address":[{"text":"ScreAtriRefNoasseDxNoCp2, Screened Not at risk Assessed Severely Malnourished Diagnosed Care Plan, ID=ScreAtriRefNoasseDxNoCp2, DOB: 14 May 1950"}]},"request":{"method":"PUT","url":"Patient/d6c485a9-091a-4249-b07c-cde042b9e671"}},{"fullUrl":"https://madie.cms.gov/Encounter/0c89839c-7614-4516-92f8-d29dd571a614","resource":{"resourceType":"Encounter","id":"0c89839c-7614-4516-92f8-d29dd571a614","meta":{"profile":["http://hl7.org/fhir/us/qicore/StructureDefinition/qicore-encounter"]},"status":"finished","class":{"system":"http://terminology.hl7.org/CodeSystem/v3-ActCode","code":"IMP","display":"inpatient encounter"},"type":[{"coding":[{"system":"http://snomed.info/sct","code":"183452005"}]}],"subject":{"reference":"Patient/d6c485a9-091a-4249-b07c-cde042b9e671"},"period":{"start":"2026-02-01T08:00:00.000Z","end":"2026-02-07T08:15:00.000Z"}},"request":{"method":"PUT","url":"Encounter/0c89839c-7614-4516-92f8-d29dd571a614"}},{"fullUrl":"https://madie.cms.gov/Condition/bbc7c9ab-c229-4a54-a1ca-991367e36d88","resource":{"resourceType":"Condition","id":"bbc7c9ab-c229-4a54-a1ca-991367e36d88","meta":{"profile":["http://hl7.org/fhir/us/qicore/StructureDefinition/qicore-condition"]},"clinicalStatus":{"coding":[{"system":"http://terminology.hl7.org/CodeSystem/condition-clinical","code":"active","display":"Active","userSelected":true}]},"verificationStatus":{"coding":[{"system":"http://terminology.hl7.org/CodeSystem/condition-ver-status","code":"confirmed","display":"Confirmed","userSelected":true}]},"category":[{"coding":[{"system":"http://terminology.hl7.org/CodeSystem/condition-category","code":"encounter-diagnosis","display":"Encounter Diagnosis","userSelected":true}]}],"code":{"coding":[{"system":"http://hl7.org/fhir/sid/icd-10-cm","code":"T73.0XXA","display":"Starvation, initial encounter","userSelected":true}]},"subject":{"reference":"Patient/d6c485a9-091a-4249-b07c-cde042b9e671"},"onsetPeriod":{"start":"2026-02-01T08:00:00.000+00:00"},"recordedDate":"2026-02-01T11:00:00.000+00:00"},"request":{"method":"PUT","url":"Condition/bbc7c9ab-c229-4a54-a1ca-991367e36d88"}},{"fullUrl":"https://madie.cms.gov/Observation/f846cfcf-673f-4463-bd5a-d1390ad101ba","resource":{"resourceType":"Observation","id":"f846cfcf-673f-4463-bd5a-d1390ad101ba","meta":{"profile":["http://hl7.org/fhir/us/qicore/StructureDefinition/qicore-observation"]},"status":"final","category":[{"coding":[{"system":"http://terminology.hl7.org/CodeSystem/observation-category","code":"survey","display":"Survey"}]}],"code":{"coding":[{"system":"http://loinc.org","code":"98967-3","display":"Nutritional Risk Screening 2002 panel","userSelected":true}]},"subject":{"reference":"Patient/d6c485a9-091a-4249-b07c-cde042b9e671"},"effectiveDateTime":"2026-02-01T09:00:00.000+00:00","valueCodeableConcept":{"coding":[{"system":"http://snomed.info/sct","code":"129689002","display":"At risk for nutritional problem (finding)","userSelected":true}]}},"request":{"method":"PUT","url":"Observation/f846cfcf-673f-4463-bd5a-d1390ad101ba"}},{"fullUrl":"https://madie.cms.gov/Procedure/dfc1f361-059b-4522-9a1a-affa65fd1069","resource":{"resourceType":"Procedure","id":"dfc1f361-059b-4522-9a1a-affa65fd1069","meta":{"profile":["http://hl7.org/fhir/us/qicore/StructureDefinition/qicore-procedure"]},"extension":[{"url":"http://hl7.org/fhir/us/qicore/StructureDefinition/qicore-recorded","valueDateTime":"2025-02-01T11:30:00.000Z"}],"status":"completed","code":{"coding":[{"system":"http://snomed.info/sct","code":"306165000","display":"Referral to hospital-based dietetics service (procedure)"}],"text":"Referral to hospital-based dietetics service (procedure)"},"subject":{"reference":"Patient/d6c485a9-091a-4249-b07c-cde042b9e671"},"encounter":{"reference":"Encounter/ScreAtriRefNoasseDxNoCp2DENOMPass2"},"performedPeriod":{"start":"2026-02-01T11:30:00.000Z","end":"2026-02-07T08:15:00.000Z"}},"request":{"method":"PUT","url":"Procedure/dfc1f361-059b-4522-9a1a-affa65fd1069"}},{"fullUrl":"https://madie.cms.gov/Procedure/fd5bb9ed-362f-41fe-ac5f-add048243abe","resource":{"resourceType":"Procedure","id":"fd5bb9ed-362f-41fe-ac5f-add048243abe","meta":{"profile":["http://hl7.org/fhir/us/qicore/StructureDefinition/qicore-procedure"]},"extension":[{"url":"http://hl7.org/fhir/us/qicore/StructureDefinition/qicore-recorded","valueDateTime":"2025-02-02T11:30:00.000Z"}],"status":"completed","code":{"coding":[{"system":"http://snomed.info/sct","code":"182922004","display":"Dietary regime (regime/therapy)"}],"text":"Dietary regime (regime/therapy)"},"subject":{"reference":"Patient/d6c485a9-091a-4249-b07c-cde042b9e671"},"encounter":{"reference":"Encounter/ScreAtriRefNoasseDxNoCp2DENOMPass2"},"performedPeriod":{"start":"2026-02-01T11:30:00.000Z","end":"2026-02-07T08:15:00.000Z"}},"request":{"method":"PUT","url":"Procedure/fd5bb9ed-362f-41fe-ac5f-add048243abe"}},{"fullUrl":"https://madie.cms.gov/Coverage/e420767c-3b22-4b58-a40d-e25f54796a24","resource":{"resourceType":"Coverage","id":"e420767c-3b22-4b58-a40d-e25f54796a24","meta":{"profile":["http://hl7.org/fhir/us/qicore/StructureDefinition/qicore-coverage"]},"status":"active","type":{"coding":[{"system":"https://nahdo.org/sopt","version":"9.2","code":"11","display":"Medicare Managed Care (Includes Medicare Advantage Plans)"}]},"beneficiary":{"reference":"Patient/d6c485a9-091a-4249-b07c-cde042b9e671"},"period":{"start":"2024-10-01T00:00:00+00:00"},"payor":[{"reference":"Organization/d943b40f-c12a-4e58-b3f3-3d578c9b33ce"}]},"request":{"method":"PUT","url":"Coverage/e420767c-3b22-4b58-a40d-e25f54796a24"}},{"fullUrl":"https://madie.cms.gov/Organization/d943b40f-c12a-4e58-b3f3-3d578c9b33ce","resource":{"resourceType":"Organization","id":"d943b40f-c12a-4e58-b3f3-3d578c9b33ce","meta":{"profile":["http://hl7.org/fhir/us/qicore/StructureDefinition/qicore-organization"]},"identifier":[{"use":"temp","system":"urn:oid:2.16.840.1.113883.4.4","value":"21-3259825"}],"active":true,"type":[{"coding":[{"system":"http://terminology.hl7.org/CodeSystem/organization-type","code":"pay","display":"Payer"}]}],"name":"Blue Cross Blue Shield of Texas","telecom":[{"system":"phone","value":"(+1) 972-766-6900"}],"address":[{"use":"billing","type":"postal","line":["P.O. Box 660044"],"city":"Dallas","state":"TX","postalCode":"75266-0044","country":"USA"}]},"request":{"method":"PUT","url":"Organization/d943b40f-c12a-4e58-b3f3-3d578c9b33ce"}},{"fullUrl":"https://madie.cms.gov/MeasureReport/3a83780c-19b9-41ad-8e45-cbec082132bf","resource":{"resourceType":"MeasureReport","id":"3a83780c-19b9-41ad-8e45-cbec082132bf","meta":{"profile":["http://hl7.org/fhir/us/cqfmeasures/StructureDefinition/test-case-cqfm"]},"contained":[{"resourceType":"Parameters","id":"54ba8dd2-8d96-408f-8086-f5a7a141520a-parameters","parameter":[{"name":"subject","valueString":"d6c485a9-091a-4249-b07c-cde042b9e671"}]}],"extension":[{"url":"http://hl7.org/fhir/us/cqfmeasures/StructureDefinition/cqfm-inputParameters","valueReference":{"reference":"#54ba8dd2-8d96-408f-8086-f5a7a141520a-parameters"}},{"url":"http://hl7.org/fhir/us/cqfmeasures/StructureDefinition/cqfm-testCaseDescription","valueMarkdown":"Screened, At Risk, Referral, Not Assessed, Diagnosis, Nutrition Care Plan"}],"modifierExtension":[{"url":"http://hl7.org/fhir/us/cqfmeasures/StructureDefinition/cqfm-isTestCase","valueBoolean":true}],"status":"complete","type":"individual","measure":"https://madie.cms.gov/Measure/GlobalMalnutritionCompositeFHIR","period":{"start":"2026-01-01","end":"2026-12-31"},"group":[{"population":[{"code":{"coding":[{"system":"http://terminology.hl7.org/CodeSystem/measure-population","code":"initial-population","display":"Initial Population"}]},"count":1},{"code":{"coding":[{"system":"http://terminology.hl7.org/CodeSystem/measure-population","code":"measure-population","display":"Measure Population"}]},"count":1},{"code":{"coding":[{"system":"http://terminology.hl7.org/CodeSystem/measure-population","code":"measure-population-observation","display":"Measure Population Observation"}]},"count":1}]},{"population":[{"code":{"coding":[{"system":"http://terminology.hl7.org/CodeSystem/measure-population","code":"initial-population","display":"Initial Population"}]},"count":1},{"code":{"coding":[{"system":"http://terminology.hl7.org/CodeSystem/measure-population","code":"measure-population","display":"Measure Population"}]},"count":1},{"code":{"coding":[{"system":"http://terminology.hl7.org/CodeSystem/measure-population","code":"measure-population-observation","display":"Measure Population Observation"}]},"count":0}]},{"population":[{"code":{"coding":[{"system":"http://terminology.hl7.org/CodeSystem/measure-population","code":"initial-population","display":"Initial Population"}]},"count":1},{"code":{"coding":[{"system":"http://terminology.hl7.org/CodeSystem/measure-population","code":"measure-population","display":"Measure Population"}]},"count":1},{"code":{"coding":[{"system":"http://terminology.hl7.org/CodeSystem/measure-population","code":"measure-population-observation","display":"Measure Population Observation"}]},"count":0}]},{"population":[{"code":{"coding":[{"system":"http://terminology.hl7.org/CodeSystem/measure-population","code":"initial-population","display":"Initial Population"}]},"count":1},{"code":{"coding":[{"system":"http://terminology.hl7.org/CodeSystem/measure-population","code":"measure-population","display":"Measure Population"}]},"count":1},{"code":{"coding":[{"system":"http://terminology.hl7.org/CodeSystem/measure-population","code":"measure-population-observation","display":"Measure Population Observation"}]},"count":0}]},{"population":[{"code":{"coding":[{"system":"http://terminology.hl7.org/CodeSystem/measure-population","code":"initial-population","display":"Initial Population"}]},"count":1},{"code":{"coding":[{"system":"http://terminology.hl7.org/CodeSystem/measure-population","code":"measure-population","display":"Measure Population"}]},"count":1},{"code":{"coding":[{"system":"http://terminology.hl7.org/CodeSystem/measure-population","code":"measure-population-observation","display":"Measure Population Observation"}]},"count":1}]},{"population":[{"code":{"coding":[{"system":"http://terminology.hl7.org/CodeSystem/measure-population","code":"initial-population","display":"Initial Population"}]},"count":1},{"code":{"coding":[{"system":"http://terminology.hl7.org/CodeSystem/measure-population","code":"measure-population","display":"Measure Population"}]},"count":1},{"code":{"coding":[{"system":"http://terminology.hl7.org/CodeSystem/measure-population","code":"measure-population-observation","display":"Measure Population Observation"}]},"count":50}]}],"evaluatedResource":[{"reference":"Patient/d6c485a9-091a-4249-b07c-cde042b9e671"},{"reference":"Encounter/0c89839c-7614-4516-92f8-d29dd571a614"},{"reference":"Condition/bbc7c9ab-c229-4a54-a1ca-991367e36d88"},{"reference":"Observation/f846cfcf-673f-4463-bd5a-d1390ad101ba"},{"reference":"Procedure/dfc1f361-059b-4522-9a1a-affa65fd1069"},{"reference":"Procedure/fd5bb9ed-362f-41fe-ac5f-add048243abe"},{"reference":"Coverage/e420767c-3b22-4b58-a40d-e25f54796a24"},{"reference":"Organization/d943b40f-c12a-4e58-b3f3-3d578c9b33ce"}]},"request":{"method":"PUT","url":"MeasureReport/3a83780c-19b9-41ad-8e45-cbec082132bf"}}]}