{"resourceType":"Bundle","id":"tests-bd164f0a-32b1-487d-8134-93bc25787708-bundle","type":"transaction","entry":[{"fullUrl":"https://madie.cms.gov/Patient/bd164f0a-32b1-487d-8134-93bc25787708","resource":{"resourceType":"Patient","id":"bd164f0a-32b1-487d-8134-93bc25787708","meta":{"profile":["http://hl7.org/fhir/us/qicore/StructureDefinition/qicore-patient"]},"text":{"status":"generated","div":"<div xmlns=\"http://www.w3.org/1999/xhtml\"><div class=\"hapiHeaderText\">2Encounters100100L, , <b> </b></div><table class=\"hapiPropertyTable\"><tbody><tr><td>Identifier</td><td>2Encounters100100L</td></tr><tr><td>Date of birth</td><td><span>14 May 1950</span></td></tr></tbody></table></div>"},"extension":[{"url":"http://hl7.org/fhir/us/core/StructureDefinition/us-core-race","extension":[{"url":"ombCategory","valueCoding":{"system":"urn:oid:2.16.840.1.113883.6.238","code":"2106-3","display":"White","userSelected":true}},{"url":"text","valueString":"White"}]},{"url":"http://hl7.org/fhir/us/core/StructureDefinition/us-core-ethnicity","extension":[{"url":"ombCategory","valueCoding":{"system":"urn:oid:2.16.840.1.113883.6.238","code":"2186-5","display":"Not Hispanic or Latino","userSelected":true}},{"url":"text","valueString":"Not Hispanic or Latino"}]}],"identifier":[{"type":{"coding":[{"system":"http://terminology.hl7.org/CodeSystem/v2-0203","code":"MR"}]},"system":"https://madie.cms.gov/","value":"2Encounters100100L"}],"active":true,"name":[{"use":"usual","text":"2Encounters100100L","family":"DENOMPass42","given":["2Encounters100100LDENOMPass42"]}],"gender":"male","birthDate":"1950-05-14","address":[{"text":"2Encounters100100L, Screened Not at risk Assessed Severely Malnourished Diagnosed Care Plan, ID=2Encounters100100L, DOB: 14 May 1950"}]},"request":{"method":"PUT","url":"Patient/bd164f0a-32b1-487d-8134-93bc25787708"}},{"fullUrl":"https://madie.cms.gov/Encounter/f943405d-b3aa-4bdc-97f8-53a4ed5ba75e","resource":{"resourceType":"Encounter","id":"f943405d-b3aa-4bdc-97f8-53a4ed5ba75e","meta":{"profile":["http://hl7.org/fhir/us/qicore/StructureDefinition/qicore-encounter"]},"status":"finished","class":{"system":"http://terminology.hl7.org/CodeSystem/v3-ActCode","code":"IMP","display":"inpatient encounter"},"type":[{"coding":[{"system":"http://snomed.info/sct","code":"183452005"}]}],"subject":{"reference":"Patient/bd164f0a-32b1-487d-8134-93bc25787708"},"period":{"start":"2026-02-01T08:00:00.000Z","end":"2026-02-07T08:15:00.000Z"}},"request":{"method":"PUT","url":"Encounter/f943405d-b3aa-4bdc-97f8-53a4ed5ba75e"}},{"fullUrl":"https://madie.cms.gov/Condition/046448c8-b954-4666-8b1b-9b775987005b","resource":{"resourceType":"Condition","id":"046448c8-b954-4666-8b1b-9b775987005b","meta":{"profile":["http://hl7.org/fhir/us/qicore/StructureDefinition/qicore-condition"]},"clinicalStatus":{"coding":[{"system":"http://terminology.hl7.org/CodeSystem/condition-clinical","code":"active","display":"Active","userSelected":true}]},"verificationStatus":{"coding":[{"system":"http://terminology.hl7.org/CodeSystem/condition-ver-status","code":"confirmed","display":"Confirmed","userSelected":true}]},"category":[{"coding":[{"system":"http://terminology.hl7.org/CodeSystem/condition-category","code":"encounter-diagnosis","display":"Encounter Diagnosis","userSelected":true}]}],"code":{"coding":[{"system":"http://snomed.info/sct","code":"272588001","display":"Malnutrition (calorie) (disorder)","userSelected":true}]},"subject":{"reference":"Patient/bd164f0a-32b1-487d-8134-93bc25787708"},"onsetPeriod":{"start":"2026-02-01T08:00:00.000+00:00"},"recordedDate":"2026-02-01T11:00:00.000+00:00"},"request":{"method":"PUT","url":"Condition/046448c8-b954-4666-8b1b-9b775987005b"}},{"fullUrl":"https://madie.cms.gov/Observation/bbd8a2fe-b40c-4dd2-babd-6532647ebb17","resource":{"resourceType":"Observation","id":"bbd8a2fe-b40c-4dd2-babd-6532647ebb17","meta":{"profile":["http://hl7.org/fhir/us/qicore/StructureDefinition/qicore-observation"]},"status":"final","category":[{"coding":[{"system":"http://terminology.hl7.org/CodeSystem/observation-category","code":"survey","display":"Survey"}]}],"code":{"coding":[{"system":"http://loinc.org","code":"98968-1","display":"Initial Screening NRS_2002","userSelected":true}]},"subject":{"reference":"Patient/bd164f0a-32b1-487d-8134-93bc25787708"},"effectiveDateTime":"2025-02-01T09:00:00.000+00:00","valueCodeableConcept":{"coding":[{"system":"http://snomed.info/sct","code":"36823005","display":"Normal diet (finding)","userSelected":true}]}},"request":{"method":"PUT","url":"Observation/bbd8a2fe-b40c-4dd2-babd-6532647ebb17"}},{"fullUrl":"https://madie.cms.gov/Observation/9915ad08-9f1d-4fc5-9029-d251bffeb15b","resource":{"resourceType":"Observation","id":"9915ad08-9f1d-4fc5-9029-d251bffeb15b","meta":{"profile":["http://hl7.org/fhir/us/qicore/StructureDefinition/qicore-observation"]},"status":"final","category":[{"coding":[{"system":"http://terminology.hl7.org/CodeSystem/observation-category","code":"survey","display":"Survey"}]}],"code":{"coding":[{"system":"http://loinc.org","code":"75285-7","display":"Comparative nutrition assessment standards panel","userSelected":true}]},"subject":{"reference":"Patient/bd164f0a-32b1-487d-8134-93bc25787708"},"effectiveDateTime":"2026-02-01T10:00:00.000+00:00","valueCodeableConcept":{"coding":[{"system":"http://snomed.info/sct","code":"272588001","display":"Malnutrition (calorie) (disorder)","userSelected":true}]}},"request":{"method":"PUT","url":"Observation/9915ad08-9f1d-4fc5-9029-d251bffeb15b"}},{"fullUrl":"https://madie.cms.gov/Procedure/81d94fa9-0916-4956-b9c3-e36f65df41fb","resource":{"resourceType":"Procedure","id":"81d94fa9-0916-4956-b9c3-e36f65df41fb","meta":{"profile":["http://hl7.org/fhir/us/qicore/StructureDefinition/qicore-procedure"]},"extension":[{"url":"http://hl7.org/fhir/us/qicore/StructureDefinition/qicore-recorded","valueDateTime":"2025-02-01T11:30:00.000Z"}],"status":"completed","code":{"coding":[{"system":"http://snomed.info/sct","code":"306354000","display":"Referral to hospital-based dietitian (procedure)"}],"text":"Referral to hospital-based dietitian (procedure)"},"subject":{"reference":"Patient/bd164f0a-32b1-487d-8134-93bc25787708"},"encounter":{"reference":"Encounter/2Encounters100100LDENOMPass42"},"performedPeriod":{"start":"2026-02-01T11:30:00.000Z","end":"2026-02-07T08:15:00.000Z"}},"request":{"method":"PUT","url":"Procedure/81d94fa9-0916-4956-b9c3-e36f65df41fb"}},{"fullUrl":"https://madie.cms.gov/Procedure/0392ddb5-6045-4408-9b10-c4497dfa98c7","resource":{"resourceType":"Procedure","id":"0392ddb5-6045-4408-9b10-c4497dfa98c7","meta":{"profile":["http://hl7.org/fhir/us/qicore/StructureDefinition/qicore-procedure"]},"extension":[{"url":"http://hl7.org/fhir/us/qicore/StructureDefinition/qicore-recorded","valueDateTime":"2025-02-02T11:30:00.000Z"}],"status":"completed","code":{"coding":[{"system":"http://snomed.info/sct","code":"386372009","display":"Nutrition management (regime/therapy)"}],"text":"Nutrition management (regime/therapy)"},"subject":{"reference":"Patient/bd164f0a-32b1-487d-8134-93bc25787708"},"encounter":{"reference":"Encounter/2Encounters100100LDENOMPass42"},"performedPeriod":{"start":"2026-02-01T11:30:00.000Z","end":"2026-02-07T08:15:00.000Z"}},"request":{"method":"PUT","url":"Procedure/0392ddb5-6045-4408-9b10-c4497dfa98c7"}},{"fullUrl":"https://madie.cms.gov/Coverage/5dcbdd4e-6713-4fb8-975c-260649880e09","resource":{"resourceType":"Coverage","id":"5dcbdd4e-6713-4fb8-975c-260649880e09","meta":{"profile":["http://hl7.org/fhir/us/qicore/StructureDefinition/qicore-coverage"]},"status":"active","type":{"coding":[{"system":"https://nahdo.org/sopt","version":"9.2","code":"11","display":"Medicare Managed Care (Includes Medicare Advantage Plans)"}]},"beneficiary":{"reference":"Patient/bd164f0a-32b1-487d-8134-93bc25787708"},"period":{"start":"2024-10-01T00:00:00+00:00"},"payor":[{"reference":"Organization/861d6360-6896-4f85-9d61-6130512d86dd"}]},"request":{"method":"PUT","url":"Coverage/5dcbdd4e-6713-4fb8-975c-260649880e09"}},{"fullUrl":"https://madie.cms.gov/Encounter/50f446fb-6886-4eaa-8b5a-97bd64fdd9e4","resource":{"resourceType":"Encounter","id":"50f446fb-6886-4eaa-8b5a-97bd64fdd9e4","meta":{"profile":["http://hl7.org/fhir/us/qicore/StructureDefinition/qicore-encounter"]},"status":"finished","class":{"system":"http://terminology.hl7.org/CodeSystem/v3-ActCode","code":"IMP","display":"inpatient encounter"},"type":[{"coding":[{"system":"http://snomed.info/sct","code":"183452005"}]}],"subject":{"reference":"Patient/bd164f0a-32b1-487d-8134-93bc25787708"},"period":{"start":"2026-03-01T08:00:00.000Z","end":"2026-03-07T08:15:00.000Z"}},"request":{"method":"PUT","url":"Encounter/50f446fb-6886-4eaa-8b5a-97bd64fdd9e4"}},{"fullUrl":"https://madie.cms.gov/Condition/3ad02b0a-4549-40ec-ae15-4dd286b4cac9","resource":{"resourceType":"Condition","id":"3ad02b0a-4549-40ec-ae15-4dd286b4cac9","meta":{"profile":["http://hl7.org/fhir/us/qicore/StructureDefinition/qicore-condition"]},"clinicalStatus":{"coding":[{"system":"http://terminology.hl7.org/CodeSystem/condition-clinical","code":"active","display":"Active","userSelected":true}]},"verificationStatus":{"coding":[{"system":"http://terminology.hl7.org/CodeSystem/condition-ver-status","code":"confirmed","display":"Confirmed","userSelected":true}]},"category":[{"coding":[{"system":"http://terminology.hl7.org/CodeSystem/condition-category","code":"encounter-diagnosis","display":"Encounter Diagnosis","userSelected":true}]}],"code":{"coding":[{"system":"http://snomed.info/sct","code":"272588001","display":"Malnutrition (calorie) (disorder)","userSelected":true}]},"subject":{"reference":"Patient/bd164f0a-32b1-487d-8134-93bc25787708"},"onsetPeriod":{"start":"2026-03-01T08:00:00.000+00:00"},"recordedDate":"2026-03-01T11:00:00.000+00:00"},"request":{"method":"PUT","url":"Condition/3ad02b0a-4549-40ec-ae15-4dd286b4cac9"}},{"fullUrl":"https://madie.cms.gov/Observation/c32d6b81-09a8-4408-9b20-7190b1ae1121","resource":{"resourceType":"Observation","id":"c32d6b81-09a8-4408-9b20-7190b1ae1121","meta":{"profile":["http://hl7.org/fhir/us/qicore/StructureDefinition/qicore-observation"]},"status":"final","category":[{"coding":[{"system":"http://terminology.hl7.org/CodeSystem/observation-category","code":"survey","display":"Survey"}]}],"code":{"coding":[{"system":"http://loinc.org","code":"75285-7","display":"Comparative nutrition assessment standards panel","userSelected":true}]},"subject":{"reference":"Patient/bd164f0a-32b1-487d-8134-93bc25787708"},"effectiveDateTime":"2026-03-01T10:00:00.000+00:00","valueCodeableConcept":{"coding":[{"system":"http://snomed.info/sct","code":"248324001","display":"Well nourished (finding)","userSelected":true}]}},"request":{"method":"PUT","url":"Observation/c32d6b81-09a8-4408-9b20-7190b1ae1121"}},{"fullUrl":"https://madie.cms.gov/Procedure/0489c535-c3c9-4cf2-849b-bba27ec75035","resource":{"resourceType":"Procedure","id":"0489c535-c3c9-4cf2-849b-bba27ec75035","meta":{"profile":["http://hl7.org/fhir/us/qicore/StructureDefinition/qicore-procedure"]},"extension":[{"url":"http://hl7.org/fhir/us/qicore/StructureDefinition/qicore-recorded","valueDateTime":"2025-03-01T11:30:00.000Z"}],"status":"completed","code":{"coding":[{"system":"http://snomed.info/sct","code":"306354000","display":"Referral to hospital-based dietitian (procedure)"}],"text":"Referral to hospital-based dietitian (procedure)"},"subject":{"reference":"Patient/bd164f0a-32b1-487d-8134-93bc25787708"},"encounter":{"reference":"Encounter/2Encounters100100LDENOMPass42"},"performedPeriod":{"start":"2026-03-01T11:30:00.000Z","end":"2026-03-07T08:15:00.000Z"}},"request":{"method":"PUT","url":"Procedure/0489c535-c3c9-4cf2-849b-bba27ec75035"}},{"fullUrl":"https://madie.cms.gov/Coverage/61d4060b-d894-4fb4-9262-c5bebd3928b9","resource":{"resourceType":"Coverage","id":"61d4060b-d894-4fb4-9262-c5bebd3928b9","meta":{"profile":["http://hl7.org/fhir/us/qicore/StructureDefinition/qicore-coverage"]},"status":"active","type":{"coding":[{"system":"https://nahdo.org/sopt","version":"9.2","code":"11","display":"Medicare Managed Care (Includes Medicare Advantage Plans)"}]},"beneficiary":{"reference":"Patient/bd164f0a-32b1-487d-8134-93bc25787708"},"period":{"start":"2024-10-01T00:00:00+00:00"},"payor":[{"reference":"Organization/861d6360-6896-4f85-9d61-6130512d86dd"}]},"request":{"method":"PUT","url":"Coverage/61d4060b-d894-4fb4-9262-c5bebd3928b9"}},{"fullUrl":"https://madie.cms.gov/Organization/861d6360-6896-4f85-9d61-6130512d86dd","resource":{"resourceType":"Organization","id":"861d6360-6896-4f85-9d61-6130512d86dd","meta":{"profile":["http://hl7.org/fhir/us/qicore/StructureDefinition/qicore-organization"]},"identifier":[{"use":"temp","system":"urn:oid:2.16.840.1.113883.4.4","value":"21-3259825"}],"active":true,"type":[{"coding":[{"system":"http://terminology.hl7.org/CodeSystem/organization-type","code":"pay","display":"Payer"}]}],"name":"Blue Cross Blue Shield of Texas","telecom":[{"system":"phone","value":"(+1) 972-766-6900"}],"address":[{"use":"billing","type":"postal","line":["P.O. Box 660044"],"city":"Dallas","state":"TX","postalCode":"75266-0044","country":"USA"}]},"request":{"method":"PUT","url":"Organization/861d6360-6896-4f85-9d61-6130512d86dd"}},{"fullUrl":"https://madie.cms.gov/MeasureReport/4277d6a7-51fb-4e42-a846-592ac4f4d0ae","resource":{"resourceType":"MeasureReport","id":"4277d6a7-51fb-4e42-a846-592ac4f4d0ae","meta":{"profile":["http://hl7.org/fhir/us/cqfmeasures/StructureDefinition/test-case-cqfm"]},"contained":[{"resourceType":"Parameters","id":"65e7e113-9b22-45cc-891d-2d824194139c-parameters","parameter":[{"name":"subject","valueString":"bd164f0a-32b1-487d-8134-93bc25787708"}]}],"extension":[{"url":"http://hl7.org/fhir/us/cqfmeasures/StructureDefinition/cqfm-inputParameters","valueReference":{"reference":"#65e7e113-9b22-45cc-891d-2d824194139c-parameters"}},{"url":"http://hl7.org/fhir/us/cqfmeasures/StructureDefinition/cqfm-testCaseDescription","valueMarkdown":"2 Encounters"}],"modifierExtension":[{"url":"http://hl7.org/fhir/us/cqfmeasures/StructureDefinition/cqfm-isTestCase","valueBoolean":true}],"status":"complete","type":"individual","measure":"https://madie.cms.gov/Measure/GlobalMalnutritionCompositeFHIR","period":{"start":"2026-01-01","end":"2026-12-31"},"group":[{"population":[{"code":{"coding":[{"system":"http://terminology.hl7.org/CodeSystem/measure-population","code":"initial-population","display":"Initial Population"}]},"count":2},{"code":{"coding":[{"system":"http://terminology.hl7.org/CodeSystem/measure-population","code":"measure-population","display":"Measure Population"}]},"count":2},{"code":{"coding":[{"system":"http://terminology.hl7.org/CodeSystem/measure-population","code":"measure-population-observation","display":"Measure Population Observation"}]},"count":1},{"code":{"coding":[{"system":"http://terminology.hl7.org/CodeSystem/measure-population","code":"measure-population-observation","display":"Measure Population Observation"}]},"count":1}]},{"population":[{"code":{"coding":[{"system":"http://terminology.hl7.org/CodeSystem/measure-population","code":"initial-population","display":"Initial Population"}]},"count":2},{"code":{"coding":[{"system":"http://terminology.hl7.org/CodeSystem/measure-population","code":"measure-population","display":"Measure Population"}]},"count":2},{"code":{"coding":[{"system":"http://terminology.hl7.org/CodeSystem/measure-population","code":"measure-population-observation","display":"Measure Population Observation"}]},"count":1},{"code":{"coding":[{"system":"http://terminology.hl7.org/CodeSystem/measure-population","code":"measure-population-observation","display":"Measure Population Observation"}]},"count":1}]},{"population":[{"code":{"coding":[{"system":"http://terminology.hl7.org/CodeSystem/measure-population","code":"initial-population","display":"Initial Population"}]},"count":2},{"code":{"coding":[{"system":"http://terminology.hl7.org/CodeSystem/measure-population","code":"measure-population","display":"Measure Population"}]},"count":2},{"code":{"coding":[{"system":"http://terminology.hl7.org/CodeSystem/measure-population","code":"measure-population-observation","display":"Measure Population Observation"}]},"count":1},{"code":{"coding":[{"system":"http://terminology.hl7.org/CodeSystem/measure-population","code":"measure-population-observation","display":"Measure Population Observation"}]},"count":0}]},{"population":[{"code":{"coding":[{"system":"http://terminology.hl7.org/CodeSystem/measure-population","code":"initial-population","display":"Initial Population"}]},"count":2},{"code":{"coding":[{"system":"http://terminology.hl7.org/CodeSystem/measure-population","code":"measure-population","display":"Measure Population"}]},"count":2},{"code":{"coding":[{"system":"http://terminology.hl7.org/CodeSystem/measure-population","code":"measure-population-observation","display":"Measure Population Observation"}]},"count":1},{"code":{"coding":[{"system":"http://terminology.hl7.org/CodeSystem/measure-population","code":"measure-population-observation","display":"Measure Population Observation"}]},"count":0}]},{"population":[{"code":{"coding":[{"system":"http://terminology.hl7.org/CodeSystem/measure-population","code":"initial-population","display":"Initial Population"}]},"count":2},{"code":{"coding":[{"system":"http://terminology.hl7.org/CodeSystem/measure-population","code":"measure-population","display":"Measure Population"}]},"count":2},{"code":{"coding":[{"system":"http://terminology.hl7.org/CodeSystem/measure-population","code":"measure-population-observation","display":"Measure Population Observation"}]},"count":4},{"code":{"coding":[{"system":"http://terminology.hl7.org/CodeSystem/measure-population","code":"measure-population-observation","display":"Measure Population Observation"}]},"count":2}]},{"population":[{"code":{"coding":[{"system":"http://terminology.hl7.org/CodeSystem/measure-population","code":"initial-population","display":"Initial Population"}]},"count":2},{"code":{"coding":[{"system":"http://terminology.hl7.org/CodeSystem/measure-population","code":"measure-population","display":"Measure Population"}]},"count":2},{"code":{"coding":[{"system":"http://terminology.hl7.org/CodeSystem/measure-population","code":"measure-population-observation","display":"Measure Population Observation"}]},"count":100},{"code":{"coding":[{"system":"http://terminology.hl7.org/CodeSystem/measure-population","code":"measure-population-observation","display":"Measure Population Observation"}]},"count":100}]}],"evaluatedResource":[{"reference":"Patient/bd164f0a-32b1-487d-8134-93bc25787708"},{"reference":"Encounter/f943405d-b3aa-4bdc-97f8-53a4ed5ba75e"},{"reference":"Condition/046448c8-b954-4666-8b1b-9b775987005b"},{"reference":"Observation/bbd8a2fe-b40c-4dd2-babd-6532647ebb17"},{"reference":"Observation/9915ad08-9f1d-4fc5-9029-d251bffeb15b"},{"reference":"Procedure/81d94fa9-0916-4956-b9c3-e36f65df41fb"},{"reference":"Procedure/0392ddb5-6045-4408-9b10-c4497dfa98c7"},{"reference":"Coverage/5dcbdd4e-6713-4fb8-975c-260649880e09"},{"reference":"Encounter/50f446fb-6886-4eaa-8b5a-97bd64fdd9e4"},{"reference":"Condition/3ad02b0a-4549-40ec-ae15-4dd286b4cac9"},{"reference":"Observation/c32d6b81-09a8-4408-9b20-7190b1ae1121"},{"reference":"Procedure/0489c535-c3c9-4cf2-849b-bba27ec75035"},{"reference":"Coverage/61d4060b-d894-4fb4-9262-c5bebd3928b9"},{"reference":"Organization/861d6360-6896-4f85-9d61-6130512d86dd"}]},"request":{"method":"PUT","url":"MeasureReport/4277d6a7-51fb-4e42-a846-592ac4f4d0ae"}}]}