{"resourceType":"Bundle","id":"tests-e9b4cf55-8744-4194-a07c-9a5ba93e9c52-bundle","type":"transaction","entry":[{"fullUrl":"https://madie.cms.gov/Patient/e9b4cf55-8744-4194-a07c-9a5ba93e9c52","resource":{"resourceType":"Patient","id":"e9b4cf55-8744-4194-a07c-9a5ba93e9c52","meta":{"profile":["http://hl7.org/fhir/us/qicore/StructureDefinition/qicore-patient"]},"text":{"status":"generated","div":"<div xmlns=\"http://www.w3.org/1999/xhtml\"><div class=\"hapiHeaderText\">ScreNotatriNorefAsseModDxCp2, , <b> </b></div><table class=\"hapiPropertyTable\"><tbody><tr><td>Identifier</td><td>ScreNotatriNorefAsseModDxCp2</td></tr><tr><td>Date of birth</td><td><span>14 May 1950</span></td></tr></tbody></table></div>"},"extension":[{"url":"http://hl7.org/fhir/us/core/StructureDefinition/us-core-race","extension":[{"url":"ombCategory","valueCoding":{"system":"urn:oid:2.16.840.1.113883.6.238","code":"1002-5","display":"American Indian or Alaska Native","userSelected":true}},{"url":"text","valueString":"White"}]},{"url":"http://hl7.org/fhir/us/core/StructureDefinition/us-core-ethnicity","extension":[{"url":"ombCategory","valueCoding":{"system":"urn:oid:2.16.840.1.113883.6.238","code":"2135-2","display":"Hispanic or Latino","userSelected":true}},{"url":"text","valueString":"Hispanic or Latino"}]}],"identifier":[{"type":{"coding":[{"system":"http://terminology.hl7.org/CodeSystem/v2-0203","code":"MR"}]},"system":"https://madie.cms.gov/","value":"ScreNotatriNorefAsseModDxCp2"}],"active":true,"name":[{"use":"usual","text":"ScreNotatriNorefAsseModDxCp2","family":"OCCURPass1","given":["ScreNotatriNorefAsseModDxCp2DENOMPass1"]}],"gender":"male","birthDate":"1955-12-31","address":[{"text":"ScreNotatriNorefAsseModDxCp2, Screened Not at risk Assessed Severely Malnourished Diagnosed Care Plan, ID=ScreNotatriNorefAsseModDxCp2, DOB: 14 May 1950"}]},"request":{"method":"PUT","url":"Patient/e9b4cf55-8744-4194-a07c-9a5ba93e9c52"}},{"fullUrl":"https://madie.cms.gov/Encounter/d1245ce3-6945-4bbc-91b6-cb8e83a88c25","resource":{"resourceType":"Encounter","id":"d1245ce3-6945-4bbc-91b6-cb8e83a88c25","meta":{"profile":["http://hl7.org/fhir/us/qicore/StructureDefinition/qicore-encounter"]},"status":"finished","class":{"system":"http://terminology.hl7.org/CodeSystem/v3-ActCode","code":"IMP","display":"inpatient encounter"},"type":[{"coding":[{"system":"http://snomed.info/sct","code":"183452005"}]}],"subject":{"reference":"Patient/e9b4cf55-8744-4194-a07c-9a5ba93e9c52"},"period":{"start":"2026-02-01T08:00:00.000Z","end":"2026-02-07T08:15:00.000Z"}},"request":{"method":"PUT","url":"Encounter/d1245ce3-6945-4bbc-91b6-cb8e83a88c25"}},{"fullUrl":"https://madie.cms.gov/Condition/ab67a158-af6b-4a01-a24d-2cf296c6686b","resource":{"resourceType":"Condition","id":"ab67a158-af6b-4a01-a24d-2cf296c6686b","meta":{"profile":["http://hl7.org/fhir/us/qicore/StructureDefinition/qicore-condition"]},"clinicalStatus":{"coding":[{"system":"http://terminology.hl7.org/CodeSystem/condition-clinical","code":"active","display":"Active","userSelected":true}]},"verificationStatus":{"coding":[{"system":"http://terminology.hl7.org/CodeSystem/condition-ver-status","code":"confirmed","display":"Confirmed","userSelected":true}]},"category":[{"coding":[{"system":"http://terminology.hl7.org/CodeSystem/condition-category","code":"encounter-diagnosis","display":"Encounter Diagnosis","userSelected":true}]}],"code":{"coding":[{"system":"http://snomed.info/sct","code":"238111008","display":"Deficiency of micronutrients (disorder)","userSelected":true}]},"subject":{"reference":"Patient/e9b4cf55-8744-4194-a07c-9a5ba93e9c52"},"onsetPeriod":{"start":"2026-02-01T08:00:00.000+00:00"},"recordedDate":"2026-02-01T11:00:00.000+00:00"},"request":{"method":"PUT","url":"Condition/ab67a158-af6b-4a01-a24d-2cf296c6686b"}},{"fullUrl":"https://madie.cms.gov/Observation/d8ccb24e-a50e-403f-afec-0251e4458526","resource":{"resourceType":"Observation","id":"d8ccb24e-a50e-403f-afec-0251e4458526","meta":{"profile":["http://hl7.org/fhir/us/qicore/StructureDefinition/qicore-observation"]},"status":"final","category":[{"coding":[{"system":"http://terminology.hl7.org/CodeSystem/observation-category","code":"survey","display":"Survey"}]}],"code":{"coding":[{"system":"http://loinc.org","code":"101807-6","display":"Malnutrition risk screen results indicator","userSelected":true}]},"subject":{"reference":"Patient/e9b4cf55-8744-4194-a07c-9a5ba93e9c52"},"effectiveDateTime":"2026-02-01T09:00:00.000+00:00","valueCodeableConcept":{"coding":[{"system":"http://loinc.org","code":"LA33699-2","display":"Not at risk for malnutrition","userSelected":true}]}},"request":{"method":"PUT","url":"Observation/d8ccb24e-a50e-403f-afec-0251e4458526"}},{"fullUrl":"https://madie.cms.gov/Observation/901d85e0-4f1c-4638-b720-693cd0bb1dd7","resource":{"resourceType":"Observation","id":"901d85e0-4f1c-4638-b720-693cd0bb1dd7","meta":{"profile":["http://hl7.org/fhir/us/qicore/StructureDefinition/qicore-observation"]},"status":"final","category":[{"coding":[{"system":"http://terminology.hl7.org/CodeSystem/observation-category","code":"survey","display":"Survey"}]}],"code":{"coding":[{"system":"http://loinc.org","code":"LA101819-1","display":"Nutrition assessment for malnutrition status","userSelected":true}]},"subject":{"reference":"Patient/e9b4cf55-8744-4194-a07c-9a5ba93e9c52"},"effectiveDateTime":"2026-02-01T10:00:00.000+00:00","valueCodeableConcept":{"coding":[{"system":"http://snomed.info/sct","code":"238111008","display":"deficiency of micronutrients (disorder)","userSelected":true}]}},"request":{"method":"PUT","url":"Observation/901d85e0-4f1c-4638-b720-693cd0bb1dd7"}},{"fullUrl":"https://madie.cms.gov/Procedure/3a6a275d-96a1-4afa-ac91-f059162b9d6c","resource":{"resourceType":"Procedure","id":"3a6a275d-96a1-4afa-ac91-f059162b9d6c","meta":{"profile":["http://hl7.org/fhir/us/qicore/StructureDefinition/qicore-procedure"]},"extension":[{"url":"http://hl7.org/fhir/us/qicore/StructureDefinition/qicore-recorded","valueDateTime":"2026-02-02T11:30:00.000Z"}],"status":"completed","code":{"coding":[{"system":"http://snomed.info/sct","code":"12797420047","display":"Development of nutrition care plan (procedure)"}],"text":"Development of nutrition care plan (procedure)"},"subject":{"reference":"Patient/e9b4cf55-8744-4194-a07c-9a5ba93e9c52"},"encounter":{"reference":"Encounter/ScreNotatriNorefAsseModDxCp2DENOMPass1"},"performedPeriod":{"start":"2026-02-01T11:30:00.000Z","end":"2026-02-07T08:15:00.000Z"}},"request":{"method":"PUT","url":"Procedure/3a6a275d-96a1-4afa-ac91-f059162b9d6c"}},{"fullUrl":"https://madie.cms.gov/Coverage/27a3c034-bd91-40e4-a645-dd80d96fa7df","resource":{"resourceType":"Coverage","id":"27a3c034-bd91-40e4-a645-dd80d96fa7df","meta":{"profile":["http://hl7.org/fhir/us/qicore/StructureDefinition/qicore-coverage"]},"status":"active","type":{"coding":[{"system":"https://nahdo.org/sopt","version":"9.2","code":"11","display":"Medicare Managed Care (Includes Medicare Advantage Plans)"}]},"beneficiary":{"reference":"Patient/e9b4cf55-8744-4194-a07c-9a5ba93e9c52"},"period":{"start":"2026-10-01T00:00:00+00:00"},"payor":[{"reference":"Organization/be5d7659-2a7a-46cd-a406-4340ebf1b7cf"}]},"request":{"method":"PUT","url":"Coverage/27a3c034-bd91-40e4-a645-dd80d96fa7df"}},{"fullUrl":"https://madie.cms.gov/Organization/be5d7659-2a7a-46cd-a406-4340ebf1b7cf","resource":{"resourceType":"Organization","id":"be5d7659-2a7a-46cd-a406-4340ebf1b7cf","meta":{"profile":["http://hl7.org/fhir/us/qicore/StructureDefinition/qicore-organization"]},"identifier":[{"use":"temp","system":"urn:oid:2.16.840.1.113883.4.4","value":"21-3259825"}],"active":true,"type":[{"coding":[{"system":"http://terminology.hl7.org/CodeSystem/organization-type","code":"pay","display":"Payer"}]}],"name":"Blue Cross Blue Shield of Texas","telecom":[{"system":"phone","value":"(+1) 972-766-6900"}],"address":[{"use":"billing","type":"postal","line":["P.O. Box 660044"],"city":"Dallas","state":"TX","postalCode":"75266-0044","country":"USA"}]},"request":{"method":"PUT","url":"Organization/be5d7659-2a7a-46cd-a406-4340ebf1b7cf"}},{"fullUrl":"https://madie.cms.gov/MeasureReport/741b02e2-72a7-4974-9a6b-a7664b56a6ff","resource":{"resourceType":"MeasureReport","id":"741b02e2-72a7-4974-9a6b-a7664b56a6ff","meta":{"profile":["http://hl7.org/fhir/us/cqfmeasures/StructureDefinition/test-case-cqfm"]},"contained":[{"resourceType":"Parameters","id":"b9bce25b-d720-4e51-8361-12e73dead4e9-parameters","parameter":[{"name":"subject","valueString":"e9b4cf55-8744-4194-a07c-9a5ba93e9c52"}]}],"extension":[{"url":"http://hl7.org/fhir/us/cqfmeasures/StructureDefinition/cqfm-inputParameters","valueReference":{"reference":"#b9bce25b-d720-4e51-8361-12e73dead4e9-parameters"}},{"url":"http://hl7.org/fhir/us/cqfmeasures/StructureDefinition/cqfm-testCaseDescription","valueMarkdown":"Screened, Not at Risk, No Referral, Assessed, Moderate Malnutrition, Diagnosis, Nutrition Care Plan"}],"modifierExtension":[{"url":"http://hl7.org/fhir/us/cqfmeasures/StructureDefinition/cqfm-isTestCase","valueBoolean":true}],"status":"complete","type":"individual","measure":"https://madie.cms.gov/Measure/GlobalMalnutritionCompositeFHIR","period":{"start":"2026-01-01","end":"2026-12-31"},"group":[{"population":[{"code":{"coding":[{"system":"http://terminology.hl7.org/CodeSystem/measure-population","code":"initial-population","display":"Initial Population"}]},"count":1},{"code":{"coding":[{"system":"http://terminology.hl7.org/CodeSystem/measure-population","code":"measure-population","display":"Measure Population"}]},"count":1},{"code":{"coding":[{"system":"http://terminology.hl7.org/CodeSystem/measure-population","code":"measure-population-observation","display":"Measure Population Observation"}]},"count":1}]},{"population":[{"code":{"coding":[{"system":"http://terminology.hl7.org/CodeSystem/measure-population","code":"initial-population","display":"Initial Population"}]},"count":1},{"code":{"coding":[{"system":"http://terminology.hl7.org/CodeSystem/measure-population","code":"measure-population","display":"Measure Population"}]},"count":1},{"code":{"coding":[{"system":"http://terminology.hl7.org/CodeSystem/measure-population","code":"measure-population-observation","display":"Measure Population Observation"}]},"count":0}]},{"population":[{"code":{"coding":[{"system":"http://terminology.hl7.org/CodeSystem/measure-population","code":"initial-population","display":"Initial Population"}]},"count":1},{"code":{"coding":[{"system":"http://terminology.hl7.org/CodeSystem/measure-population","code":"measure-population","display":"Measure Population"}]},"count":1},{"code":{"coding":[{"system":"http://terminology.hl7.org/CodeSystem/measure-population","code":"measure-population-observation","display":"Measure Population Observation"}]},"count":0}]},{"population":[{"code":{"coding":[{"system":"http://terminology.hl7.org/CodeSystem/measure-population","code":"initial-population","display":"Initial Population"}]},"count":1},{"code":{"coding":[{"system":"http://terminology.hl7.org/CodeSystem/measure-population","code":"measure-population","display":"Measure Population"}]},"count":1},{"code":{"coding":[{"system":"http://terminology.hl7.org/CodeSystem/measure-population","code":"measure-population-observation","display":"Measure Population Observation"}]},"count":0}]},{"population":[{"code":{"coding":[{"system":"http://terminology.hl7.org/CodeSystem/measure-population","code":"initial-population","display":"Initial Population"}]},"count":1},{"code":{"coding":[{"system":"http://terminology.hl7.org/CodeSystem/measure-population","code":"measure-population","display":"Measure Population"}]},"count":1},{"code":{"coding":[{"system":"http://terminology.hl7.org/CodeSystem/measure-population","code":"measure-population-observation","display":"Measure Population Observation"}]},"count":1}]},{"population":[{"code":{"coding":[{"system":"http://terminology.hl7.org/CodeSystem/measure-population","code":"initial-population","display":"Initial Population"}]},"count":1},{"code":{"coding":[{"system":"http://terminology.hl7.org/CodeSystem/measure-population","code":"measure-population","display":"Measure Population"}]},"count":1},{"code":{"coding":[{"system":"http://terminology.hl7.org/CodeSystem/measure-population","code":"measure-population-observation","display":"Measure Population Observation"}]},"count":100}]}],"evaluatedResource":[{"reference":"Patient/e9b4cf55-8744-4194-a07c-9a5ba93e9c52"},{"reference":"Encounter/d1245ce3-6945-4bbc-91b6-cb8e83a88c25"},{"reference":"Condition/ab67a158-af6b-4a01-a24d-2cf296c6686b"},{"reference":"Observation/d8ccb24e-a50e-403f-afec-0251e4458526"},{"reference":"Observation/901d85e0-4f1c-4638-b720-693cd0bb1dd7"},{"reference":"Procedure/3a6a275d-96a1-4afa-ac91-f059162b9d6c"},{"reference":"Coverage/27a3c034-bd91-40e4-a645-dd80d96fa7df"},{"reference":"Organization/be5d7659-2a7a-46cd-a406-4340ebf1b7cf"}]},"request":{"method":"PUT","url":"MeasureReport/741b02e2-72a7-4974-9a6b-a7664b56a6ff"}}]}