{"resourceType":"Bundle","id":"tests-57738f12-b2df-4a06-97a8-c1e91f5f08f6-bundle","type":"transaction","entry":[{"fullUrl":"https://madie.cms.gov/Patient/57738f12-b2df-4a06-97a8-c1e91f5f08f6","resource":{"resourceType":"Patient","id":"57738f12-b2df-4a06-97a8-c1e91f5f08f6","meta":{"profile":["http://hl7.org/fhir/us/qicore/StructureDefinition/qicore-patient"]},"text":{"status":"generated","div":"<div xmlns=\"http://www.w3.org/1999/xhtml\"><div class=\"hapiHeaderText\">los23hours2, Screened Not at risk Assessed Severely Malnourished Diagnosed Care Plan, <b>mo1111d4p100 </b></div><table class=\"hapiPropertyTable\"><tbody><tr><td>Identifier</td><td>los23hours2</td></tr><tr><td>Date of birth</td><td><span>14 May 1950</span></td></tr></tbody></table></div>"},"extension":[{"url":"http://hl7.org/fhir/us/core/StructureDefinition/us-core-race","extension":[{"url":"ombCategory","valueCoding":{"system":"urn:oid:2.16.840.1.113883.6.238","code":"2106-3","display":"White","userSelected":true}},{"url":"text","valueString":"White"}]},{"url":"http://hl7.org/fhir/us/core/StructureDefinition/us-core-ethnicity","extension":[{"url":"ombCategory","valueCoding":{"system":"urn:oid:2.16.840.1.113883.6.238","code":"2186-5","display":"Not Hispanic or Latino","userSelected":true}},{"url":"text","valueString":"Not Hispanic or Latino"}]}],"identifier":[{"type":{"coding":[{"system":"http://terminology.hl7.org/CodeSystem/v2-0203","code":"MR"}]},"system":"https://madie.cms.gov/","value":"los23hours2"}],"active":true,"name":[{"use":"usual","text":"los23hours2","family":"IPPFAIL","given":["los23hours2IPPFAIL"]}],"gender":"male","birthDate":"1950-05-14","address":[{"text":"los23hours2, Screened Not at risk Assessed Severely Malnourished Diagnosed Care Plan, ID=los23hours2, DOB: 14 May 1950"}]},"request":{"method":"PUT","url":"Patient/57738f12-b2df-4a06-97a8-c1e91f5f08f6"}},{"fullUrl":"https://madie.cms.gov/Encounter/7f962470-66d0-4a28-9868-3f684a2fc4ad","resource":{"resourceType":"Encounter","id":"7f962470-66d0-4a28-9868-3f684a2fc4ad","meta":{"profile":["http://hl7.org/fhir/us/qicore/StructureDefinition/qicore-encounter"]},"status":"finished","class":{"system":"http://terminology.hl7.org/CodeSystem/v3-ActCode","code":"IMP","display":"inpatient encounter"},"type":[{"coding":[{"system":"http://snomed.info/sct","code":"183452005"}]}],"subject":{"reference":"Patient/57738f12-b2df-4a06-97a8-c1e91f5f08f6"},"period":{"start":"2026-02-01T08:00:00.000Z","end":"2026-02-01T09:15:00.000Z"}},"request":{"method":"PUT","url":"Encounter/7f962470-66d0-4a28-9868-3f684a2fc4ad"}},{"fullUrl":"https://madie.cms.gov/Condition/9b3769ce-d0c6-4e46-9693-30295204033d","resource":{"resourceType":"Condition","id":"9b3769ce-d0c6-4e46-9693-30295204033d","meta":{"profile":["http://hl7.org/fhir/us/qicore/StructureDefinition/qicore-condition"]},"clinicalStatus":{"coding":[{"system":"http://terminology.hl7.org/CodeSystem/condition-clinical","code":"active","display":"Active","userSelected":true}]},"verificationStatus":{"coding":[{"system":"http://terminology.hl7.org/CodeSystem/condition-ver-status","code":"confirmed","display":"Confirmed","userSelected":true}]},"category":[{"coding":[{"system":"http://terminology.hl7.org/CodeSystem/condition-category","code":"encounter-diagnosis","display":"Encounter Diagnosis","userSelected":true}]}],"code":{"coding":[{"system":"http://snomed.info/sct","code":"190606006","display":"Moderate protein energy malnutrition (disorder)","userSelected":true}]},"subject":{"reference":"Patient/57738f12-b2df-4a06-97a8-c1e91f5f08f6"},"onsetPeriod":{"start":"2026-02-01T08:00:00.000+00:00"},"recordedDate":"2065-02-01T08:00:00.000+00:00"},"request":{"method":"PUT","url":"Condition/9b3769ce-d0c6-4e46-9693-30295204033d"}},{"fullUrl":"https://madie.cms.gov/Observation/743505d9-56dc-4e15-8e3c-d72a7b15f5d0","resource":{"resourceType":"Observation","id":"743505d9-56dc-4e15-8e3c-d72a7b15f5d0","meta":{"profile":["http://hl7.org/fhir/us/qicore/StructureDefinition/qicore-observation"]},"status":"final","category":[{"coding":[{"system":"http://terminology.hl7.org/CodeSystem/observation-category","code":"survey","display":"Survey"}]}],"code":{"coding":[{"system":"http://loinc.org","code":"98967-3","display":"Nutritional Risk Screening 2002 panel","userSelected":true}]},"subject":{"reference":"Patient/57738f12-b2df-4a06-97a8-c1e91f5f08f6"},"effectiveDateTime":"2026-02-01T09:00:00.000+00:00","valueCodeableConcept":{"coding":[{"system":"http://snomed.info/sct","code":"129689002","display":"At risk for nutritional problem (finding)","userSelected":true}]}},"request":{"method":"PUT","url":"Observation/743505d9-56dc-4e15-8e3c-d72a7b15f5d0"}},{"fullUrl":"https://madie.cms.gov/Observation/c22dd8be-99a3-47b2-be35-3630efa89cb8","resource":{"resourceType":"Observation","id":"c22dd8be-99a3-47b2-be35-3630efa89cb8","meta":{"profile":["http://hl7.org/fhir/us/qicore/StructureDefinition/qicore-observation"]},"status":"final","category":[{"coding":[{"system":"http://terminology.hl7.org/CodeSystem/observation-category","code":"survey","display":"Survey"}]}],"code":{"coding":[{"system":"http://loinc.org","code":"75282-4","display":"Nutrition assessment panel","userSelected":true}]},"subject":{"reference":"Patient/57738f12-b2df-4a06-97a8-c1e91f5f08f6"},"effectiveDateTime":"2026-02-01T10:00:00.000+00:00","valueCodeableConcept":{"coding":[{"system":"http://snomed.info/sct","code":"102635008","display":"Acute nutritional deficiency (finding)","userSelected":true}]}},"request":{"method":"PUT","url":"Observation/c22dd8be-99a3-47b2-be35-3630efa89cb8"}},{"fullUrl":"https://madie.cms.gov/Procedure/babc50ad-32a1-4109-96dc-8c7296caffc4","resource":{"resourceType":"Procedure","id":"babc50ad-32a1-4109-96dc-8c7296caffc4","meta":{"profile":["http://hl7.org/fhir/us/qicore/StructureDefinition/qicore-procedure"]},"extension":[{"url":"http://hl7.org/fhir/us/qicore/StructureDefinition/qicore-recorded","valueDateTime":"2025-02-01T08:30:00.000Z"}],"status":"completed","code":{"coding":[{"system":"http://snomed.info/sct","code":"306165000","display":"Referral to hospital-based dietetics service (procedure)"}],"text":"Referral to hospital-based dietetics service (procedure)"},"subject":{"reference":"Patient/57738f12-b2df-4a06-97a8-c1e91f5f08f6"},"encounter":{"reference":"Encounter/los23hours2IPPFAIL"},"performedPeriod":{"start":"2026-02-01T07:30:00.000Z","end":"2026-02-01T08:15:00.000Z"}},"request":{"method":"PUT","url":"Procedure/babc50ad-32a1-4109-96dc-8c7296caffc4"}},{"fullUrl":"https://madie.cms.gov/Procedure/a154aaa7-d4b8-4106-9e98-b0fd1660700c","resource":{"resourceType":"Procedure","id":"a154aaa7-d4b8-4106-9e98-b0fd1660700c","meta":{"profile":["http://hl7.org/fhir/us/qicore/StructureDefinition/qicore-procedure"]},"extension":[{"url":"http://hl7.org/fhir/us/qicore/StructureDefinition/qicore-recorded","valueDateTime":"2025-02-01T11:30:00.000Z"}],"status":"completed","code":{"coding":[{"system":"http://snomed.info/sct","code":"1279742004","display":"Development of nutrition care plan (procedure)"}],"text":"Development of nutrition care plan (procedure)"},"subject":{"reference":"Patient/57738f12-b2df-4a06-97a8-c1e91f5f08f6"},"encounter":{"reference":"Encounter/los23hours2IPPFAIL"},"performedPeriod":{"start":"2026-02-01T11:30:00.000Z","end":"2026-02-02T08:15:00.000Z"}},"request":{"method":"PUT","url":"Procedure/a154aaa7-d4b8-4106-9e98-b0fd1660700c"}},{"fullUrl":"https://madie.cms.gov/Coverage/d9147464-d2ae-4aca-b9ac-36383b7f0696","resource":{"resourceType":"Coverage","id":"d9147464-d2ae-4aca-b9ac-36383b7f0696","meta":{"profile":["http://hl7.org/fhir/us/qicore/StructureDefinition/qicore-coverage"]},"status":"active","type":{"coding":[{"system":"https://nahdo.org/sopt","version":"9.2","code":"11","display":"Medicare Managed Care (Includes Medicare Advantage Plans)"}]},"beneficiary":{"reference":"Patient/57738f12-b2df-4a06-97a8-c1e91f5f08f6"},"period":{"start":"2024-10-01T00:00:00+00:00"},"payor":[{"reference":"Organization/f1d35c05-c0b9-418b-8ab0-21a28a2fa012"}]},"request":{"method":"PUT","url":"Coverage/d9147464-d2ae-4aca-b9ac-36383b7f0696"}},{"fullUrl":"https://madie.cms.gov/Organization/f1d35c05-c0b9-418b-8ab0-21a28a2fa012","resource":{"resourceType":"Organization","id":"f1d35c05-c0b9-418b-8ab0-21a28a2fa012","meta":{"profile":["http://hl7.org/fhir/us/qicore/StructureDefinition/qicore-organization"]},"identifier":[{"use":"temp","system":"urn:oid:2.16.840.1.113883.4.4","value":"21-3259825"}],"active":true,"type":[{"coding":[{"system":"http://terminology.hl7.org/CodeSystem/organization-type","code":"pay","display":"Payer"}]}],"name":"Blue Cross Blue Shield of Texas","telecom":[{"system":"phone","value":"(+1) 972-766-6900"}],"address":[{"use":"billing","type":"postal","line":["P.O. Box 660044"],"city":"Dallas","state":"TX","postalCode":"75266-0044","country":"USA"}]},"request":{"method":"PUT","url":"Organization/f1d35c05-c0b9-418b-8ab0-21a28a2fa012"}},{"fullUrl":"https://madie.cms.gov/MeasureReport/d0912da5-d8bd-430b-bb78-3d173c2d7d72","resource":{"resourceType":"MeasureReport","id":"d0912da5-d8bd-430b-bb78-3d173c2d7d72","meta":{"profile":["http://hl7.org/fhir/us/cqfmeasures/StructureDefinition/test-case-cqfm"]},"contained":[{"resourceType":"Parameters","id":"9a2c7c6f-4755-4f1a-add9-7b629e8412d7-parameters","parameter":[{"name":"subject","valueString":"57738f12-b2df-4a06-97a8-c1e91f5f08f6"}]}],"extension":[{"url":"http://hl7.org/fhir/us/cqfmeasures/StructureDefinition/cqfm-inputParameters","valueReference":{"reference":"#9a2c7c6f-4755-4f1a-add9-7b629e8412d7-parameters"}},{"url":"http://hl7.org/fhir/us/cqfmeasures/StructureDefinition/cqfm-testCaseDescription","valueMarkdown":"1 Hour LOS, IPP fails"}],"modifierExtension":[{"url":"http://hl7.org/fhir/us/cqfmeasures/StructureDefinition/cqfm-isTestCase","valueBoolean":true}],"status":"complete","type":"individual","measure":"https://madie.cms.gov/Measure/GlobalMalnutritionCompositeFHIR","period":{"start":"2026-01-01","end":"2026-12-31"},"group":[{"population":[{"code":{"coding":[{"system":"http://terminology.hl7.org/CodeSystem/measure-population","code":"initial-population","display":"Initial Population"}]},"count":0},{"code":{"coding":[{"system":"http://terminology.hl7.org/CodeSystem/measure-population","code":"measure-population","display":"Measure Population"}]},"count":0}]},{"population":[{"code":{"coding":[{"system":"http://terminology.hl7.org/CodeSystem/measure-population","code":"initial-population","display":"Initial Population"}]},"count":0},{"code":{"coding":[{"system":"http://terminology.hl7.org/CodeSystem/measure-population","code":"measure-population","display":"Measure Population"}]},"count":0}]},{"population":[{"code":{"coding":[{"system":"http://terminology.hl7.org/CodeSystem/measure-population","code":"initial-population","display":"Initial Population"}]},"count":0},{"code":{"coding":[{"system":"http://terminology.hl7.org/CodeSystem/measure-population","code":"measure-population","display":"Measure Population"}]},"count":0}]},{"population":[{"code":{"coding":[{"system":"http://terminology.hl7.org/CodeSystem/measure-population","code":"initial-population","display":"Initial Population"}]},"count":0},{"code":{"coding":[{"system":"http://terminology.hl7.org/CodeSystem/measure-population","code":"measure-population","display":"Measure Population"}]},"count":0}]},{"population":[{"code":{"coding":[{"system":"http://terminology.hl7.org/CodeSystem/measure-population","code":"initial-population","display":"Initial Population"}]},"count":0},{"code":{"coding":[{"system":"http://terminology.hl7.org/CodeSystem/measure-population","code":"measure-population","display":"Measure Population"}]},"count":0}]},{"population":[{"code":{"coding":[{"system":"http://terminology.hl7.org/CodeSystem/measure-population","code":"initial-population","display":"Initial Population"}]},"count":0},{"code":{"coding":[{"system":"http://terminology.hl7.org/CodeSystem/measure-population","code":"measure-population","display":"Measure Population"}]},"count":0}]}],"evaluatedResource":[{"reference":"Patient/57738f12-b2df-4a06-97a8-c1e91f5f08f6"},{"reference":"Encounter/7f962470-66d0-4a28-9868-3f684a2fc4ad"},{"reference":"Condition/9b3769ce-d0c6-4e46-9693-30295204033d"},{"reference":"Observation/743505d9-56dc-4e15-8e3c-d72a7b15f5d0"},{"reference":"Observation/c22dd8be-99a3-47b2-be35-3630efa89cb8"},{"reference":"Procedure/babc50ad-32a1-4109-96dc-8c7296caffc4"},{"reference":"Procedure/a154aaa7-d4b8-4106-9e98-b0fd1660700c"},{"reference":"Coverage/d9147464-d2ae-4aca-b9ac-36383b7f0696"},{"reference":"Organization/f1d35c05-c0b9-418b-8ab0-21a28a2fa012"}]},"request":{"method":"PUT","url":"MeasureReport/d0912da5-d8bd-430b-bb78-3d173c2d7d72"}}]}