{"resourceType":"Bundle","id":"tests-e05c30b6-1307-4be6-a7b5-6014bc502fca-bundle","type":"transaction","entry":[{"fullUrl":"https://madie.cms.gov/Patient/e05c30b6-1307-4be6-a7b5-6014bc502fca","resource":{"resourceType":"Patient","id":"e05c30b6-1307-4be6-a7b5-6014bc502fca","meta":{"profile":["http://hl7.org/fhir/us/qicore/StructureDefinition/qicore-patient"]},"text":{"status":"generated","div":"<div xmlns=\"http://www.w3.org/1999/xhtml\"><div class=\"hapiHeaderText\">ScreNotatriNorefAsseModNodxCp3, , <b> </b></div><table class=\"hapiPropertyTable\"><tbody><tr><td>Identifier</td><td>ScreNotatriNorefAsseModNodxCp3</td></tr><tr><td>Date of birth</td><td><span>14 May 1950</span></td></tr></tbody></table></div>"},"extension":[{"url":"http://hl7.org/fhir/us/core/StructureDefinition/us-core-race","extension":[{"url":"ombCategory","valueCoding":{"system":"urn:oid:2.16.840.1.113883.6.238","code":"2028-9","display":"Asian","userSelected":true}},{"url":"text","valueString":"Asian"}]},{"url":"http://hl7.org/fhir/us/core/StructureDefinition/us-core-ethnicity","extension":[{"url":"ombCategory","valueCoding":{"system":"urn:oid:2.16.840.1.113883.6.238","code":"2186-5","display":"Not Hispanic or Latino","userSelected":true}},{"url":"text","valueString":"Not Hispanic or Latino"}]}],"identifier":[{"type":{"coding":[{"system":"http://terminology.hl7.org/CodeSystem/v2-0203","code":"MR"}]},"system":"https://madie.cms.gov/","value":"ScreNotatriNorefAsseModNodxCp3"}],"active":true,"name":[{"use":"usual","text":"ScreNotatriNorefAsseModNodxCp3","family":"OCCURPass1","given":["ScreNotatriNorefAsseModNodxCp3OCCURPass1"]}],"gender":"female","birthDate":"1955-12-31","address":[{"text":"ScreNotatriNorefAsseModNodxCp3, Screened Not at risk Assessed Severely Malnourished Diagnosed Care Plan, ID=ScreNotatriNorefAsseModNodxCp3, DOB: 14 May 1950"}]},"request":{"method":"PUT","url":"Patient/e05c30b6-1307-4be6-a7b5-6014bc502fca"}},{"fullUrl":"https://madie.cms.gov/Encounter/1f52c681-28a4-48a7-bace-393c45ec7143","resource":{"resourceType":"Encounter","id":"1f52c681-28a4-48a7-bace-393c45ec7143","meta":{"profile":["http://hl7.org/fhir/us/qicore/StructureDefinition/qicore-encounter"]},"status":"finished","class":{"system":"http://terminology.hl7.org/CodeSystem/v3-ActCode","code":"IMP","display":"inpatient encounter"},"type":[{"coding":[{"system":"http://snomed.info/sct","code":"183452005"}]}],"subject":{"reference":"Patient/e05c30b6-1307-4be6-a7b5-6014bc502fca"},"period":{"start":"2026-02-01T08:00:00.000Z","end":"2026-02-07T08:15:00.000Z"}},"request":{"method":"PUT","url":"Encounter/1f52c681-28a4-48a7-bace-393c45ec7143"}},{"fullUrl":"https://madie.cms.gov/Observation/f568a572-ed1b-48be-a92b-4470eb2acfc8","resource":{"resourceType":"Observation","id":"f568a572-ed1b-48be-a92b-4470eb2acfc8","meta":{"profile":["http://hl7.org/fhir/us/qicore/StructureDefinition/qicore-observation"]},"status":"final","category":[{"coding":[{"system":"http://terminology.hl7.org/CodeSystem/observation-category","code":"survey","display":"Survey"}]}],"code":{"coding":[{"system":"http://loinc.org","code":"98967-3","display":"Nutritional Risk Screening 2002 panel","userSelected":true}]},"subject":{"reference":"Patient/e05c30b6-1307-4be6-a7b5-6014bc502fca"},"effectiveDateTime":"2026-02-01T09:00:00.000+00:00","valueCodeableConcept":{"coding":[{"system":"http://loinc.org","code":"LA33699-2","display":"Not at risk for malnutrition","userSelected":true}]}},"request":{"method":"PUT","url":"Observation/f568a572-ed1b-48be-a92b-4470eb2acfc8"}},{"fullUrl":"https://madie.cms.gov/Observation/87972622-6c2a-40bf-8af7-c81071ad6aa6","resource":{"resourceType":"Observation","id":"87972622-6c2a-40bf-8af7-c81071ad6aa6","meta":{"profile":["http://hl7.org/fhir/us/qicore/StructureDefinition/qicore-observation"]},"status":"final","category":[{"coding":[{"system":"http://terminology.hl7.org/CodeSystem/observation-category","code":"survey","display":"Survey"}]}],"code":{"coding":[{"system":"http://loinc.org","code":"75304-6","display":"Nutrition status observation panel","userSelected":true}]},"subject":{"reference":"Patient/e05c30b6-1307-4be6-a7b5-6014bc502fca"},"effectiveDateTime":"2026-02-01T10:00:00.000+00:00","valueCodeableConcept":{"coding":[{"system":"http://snomed.info/sct","code":"772791006","display":"Sarcopenia (disorder)","userSelected":true}]}},"request":{"method":"PUT","url":"Observation/87972622-6c2a-40bf-8af7-c81071ad6aa6"}},{"fullUrl":"https://madie.cms.gov/Procedure/303f071f-7b64-465c-b57d-0890b03125bf","resource":{"resourceType":"Procedure","id":"303f071f-7b64-465c-b57d-0890b03125bf","meta":{"profile":["http://hl7.org/fhir/us/qicore/StructureDefinition/qicore-procedure"]},"extension":[{"url":"http://hl7.org/fhir/us/qicore/StructureDefinition/qicore-recorded","valueDateTime":"2025-02-02T11:30:00.000Z"}],"status":"completed","code":{"coding":[{"system":"http://snomed.info/sct","code":"413315001","display":"Nutrition/feeding management (regime/therapy)"}],"text":"Nutrition/feeding management(regime/therapy)"},"subject":{"reference":"Patient/e05c30b6-1307-4be6-a7b5-6014bc502fca"},"encounter":{"reference":"Encounter/ScreNotatriNorefAsseModNodxCp3OCCURPass1"},"performedPeriod":{"start":"2026-02-01T11:30:00.000Z","end":"2026-02-07T08:15:00.000Z"}},"request":{"method":"PUT","url":"Procedure/303f071f-7b64-465c-b57d-0890b03125bf"}},{"fullUrl":"https://madie.cms.gov/Coverage/c057fc5d-dc75-4ff3-a63c-5a6707c672ee","resource":{"resourceType":"Coverage","id":"c057fc5d-dc75-4ff3-a63c-5a6707c672ee","meta":{"profile":["http://hl7.org/fhir/us/qicore/StructureDefinition/qicore-coverage"]},"status":"active","type":{"coding":[{"system":"https://nahdo.org/sopt","version":"9.2","code":"11","display":"Medicare Managed Care (Includes Medicare Advantage Plans)"}]},"beneficiary":{"reference":"Patient/e05c30b6-1307-4be6-a7b5-6014bc502fca"},"period":{"start":"2025-10-01T00:00:00+00:00"},"payor":[{"reference":"Organization/82fa5301-926e-4152-8279-a5d3a6dc7e3b"}]},"request":{"method":"PUT","url":"Coverage/c057fc5d-dc75-4ff3-a63c-5a6707c672ee"}},{"fullUrl":"https://madie.cms.gov/Organization/82fa5301-926e-4152-8279-a5d3a6dc7e3b","resource":{"resourceType":"Organization","id":"82fa5301-926e-4152-8279-a5d3a6dc7e3b","meta":{"profile":["http://hl7.org/fhir/us/qicore/StructureDefinition/qicore-organization"]},"identifier":[{"use":"temp","system":"urn:oid:2.16.840.1.113883.4.4","value":"21-3259825"}],"active":true,"type":[{"coding":[{"system":"http://terminology.hl7.org/CodeSystem/organization-type","code":"pay","display":"Payer"}]}],"name":"Blue Cross Blue Shield of Texas","telecom":[{"system":"phone","value":"(+1) 972-766-6900"}],"address":[{"use":"billing","type":"postal","line":["P.O. Box 660044"],"city":"Dallas","state":"TX","postalCode":"75266-0044","country":"USA"}]},"request":{"method":"PUT","url":"Organization/82fa5301-926e-4152-8279-a5d3a6dc7e3b"}},{"fullUrl":"https://madie.cms.gov/MeasureReport/c1395ed0-31c6-4d06-a270-8f634517dea2","resource":{"resourceType":"MeasureReport","id":"c1395ed0-31c6-4d06-a270-8f634517dea2","meta":{"profile":["http://hl7.org/fhir/us/cqfmeasures/StructureDefinition/test-case-cqfm"]},"contained":[{"resourceType":"Parameters","id":"c84068ab-08e6-4c9e-b627-b0445aaf4274-parameters","parameter":[{"name":"subject","valueString":"e05c30b6-1307-4be6-a7b5-6014bc502fca"}]}],"extension":[{"url":"http://hl7.org/fhir/us/cqfmeasures/StructureDefinition/cqfm-inputParameters","valueReference":{"reference":"#c84068ab-08e6-4c9e-b627-b0445aaf4274-parameters"}},{"url":"http://hl7.org/fhir/us/cqfmeasures/StructureDefinition/cqfm-testCaseDescription","valueMarkdown":"Screened, Not At Risk, No Referral, Assessed, Severe Malnutrition, No Diagnosis, Nutrition Care Plan"}],"modifierExtension":[{"url":"http://hl7.org/fhir/us/cqfmeasures/StructureDefinition/cqfm-isTestCase","valueBoolean":true}],"status":"complete","type":"individual","measure":"https://madie.cms.gov/Measure/GlobalMalnutritionCompositeFHIR","period":{"start":"2026-01-01","end":"2026-12-31"},"group":[{"population":[{"code":{"coding":[{"system":"http://terminology.hl7.org/CodeSystem/measure-population","code":"initial-population","display":"Initial Population"}]},"count":1},{"code":{"coding":[{"system":"http://terminology.hl7.org/CodeSystem/measure-population","code":"measure-population","display":"Measure Population"}]},"count":1},{"code":{"coding":[{"system":"http://terminology.hl7.org/CodeSystem/measure-population","code":"measure-population-observation","display":"Measure Population Observation"}]},"count":1}]},{"population":[{"code":{"coding":[{"system":"http://terminology.hl7.org/CodeSystem/measure-population","code":"initial-population","display":"Initial Population"}]},"count":1},{"code":{"coding":[{"system":"http://terminology.hl7.org/CodeSystem/measure-population","code":"measure-population","display":"Measure Population"}]},"count":1},{"code":{"coding":[{"system":"http://terminology.hl7.org/CodeSystem/measure-population","code":"measure-population-observation","display":"Measure Population Observation"}]},"count":0}]},{"population":[{"code":{"coding":[{"system":"http://terminology.hl7.org/CodeSystem/measure-population","code":"initial-population","display":"Initial Population"}]},"count":1},{"code":{"coding":[{"system":"http://terminology.hl7.org/CodeSystem/measure-population","code":"measure-population","display":"Measure Population"}]},"count":1},{"code":{"coding":[{"system":"http://terminology.hl7.org/CodeSystem/measure-population","code":"measure-population-observation","display":"Measure Population Observation"}]},"count":0}]},{"population":[{"code":{"coding":[{"system":"http://terminology.hl7.org/CodeSystem/measure-population","code":"initial-population","display":"Initial Population"}]},"count":1},{"code":{"coding":[{"system":"http://terminology.hl7.org/CodeSystem/measure-population","code":"measure-population","display":"Measure Population"}]},"count":1},{"code":{"coding":[{"system":"http://terminology.hl7.org/CodeSystem/measure-population","code":"measure-population-observation","display":"Measure Population Observation"}]},"count":0}]},{"population":[{"code":{"coding":[{"system":"http://terminology.hl7.org/CodeSystem/measure-population","code":"initial-population","display":"Initial Population"}]},"count":1},{"code":{"coding":[{"system":"http://terminology.hl7.org/CodeSystem/measure-population","code":"measure-population","display":"Measure Population"}]},"count":1},{"code":{"coding":[{"system":"http://terminology.hl7.org/CodeSystem/measure-population","code":"measure-population-observation","display":"Measure Population Observation"}]},"count":1}]},{"population":[{"code":{"coding":[{"system":"http://terminology.hl7.org/CodeSystem/measure-population","code":"initial-population","display":"Initial Population"}]},"count":1},{"code":{"coding":[{"system":"http://terminology.hl7.org/CodeSystem/measure-population","code":"measure-population","display":"Measure Population"}]},"count":1},{"code":{"coding":[{"system":"http://terminology.hl7.org/CodeSystem/measure-population","code":"measure-population-observation","display":"Measure Population Observation"}]},"count":100}]}],"evaluatedResource":[{"reference":"Patient/e05c30b6-1307-4be6-a7b5-6014bc502fca"},{"reference":"Encounter/1f52c681-28a4-48a7-bace-393c45ec7143"},{"reference":"Observation/f568a572-ed1b-48be-a92b-4470eb2acfc8"},{"reference":"Observation/87972622-6c2a-40bf-8af7-c81071ad6aa6"},{"reference":"Procedure/303f071f-7b64-465c-b57d-0890b03125bf"},{"reference":"Coverage/c057fc5d-dc75-4ff3-a63c-5a6707c672ee"},{"reference":"Organization/82fa5301-926e-4152-8279-a5d3a6dc7e3b"}]},"request":{"method":"PUT","url":"MeasureReport/c1395ed0-31c6-4d06-a270-8f634517dea2"}}]}