{"resourceType":"Bundle","id":"tests-867f00f9-facf-41e7-9925-a22a944e01bb-bundle","type":"transaction","entry":[{"fullUrl":"https://madie.cms.gov/Patient/867f00f9-facf-41e7-9925-a22a944e01bb","resource":{"resourceType":"Patient","id":"867f00f9-facf-41e7-9925-a22a944e01bb","meta":{"profile":["http://hl7.org/fhir/us/qicore/StructureDefinition/qicore-patient"]},"text":{"status":"generated","div":"<div xmlns=\"http://www.w3.org/1999/xhtml\"><div class=\"hapiHeaderText\">NoscreNorefAsseModDxNocp2, , <b> </b></div><table class=\"hapiPropertyTable\"><tbody><tr><td>Identifier</td><td>NoscreNorefAsseModDxNocp2</td></tr><tr><td>Date of birth</td><td><span>14 May 1950</span></td></tr></tbody></table></div>"},"extension":[{"url":"http://hl7.org/fhir/us/core/StructureDefinition/us-core-race","extension":[{"url":"ombCategory","valueCoding":{"system":"urn:oid:2.16.840.1.113883.6.238","code":"1002-5","display":"American Indian or Alaska Native","userSelected":true}},{"url":"text","valueString":"American Indian or Alaska Native"}]},{"url":"http://hl7.org/fhir/us/core/StructureDefinition/us-core-ethnicity","extension":[{"url":"ombCategory","valueCoding":{"system":"urn:oid:2.16.840.1.113883.6.238","code":"2135-2","display":"Hispanic or Latino","userSelected":true}},{"url":"text","valueString":"Hispanic or Latino"}]}],"identifier":[{"type":{"coding":[{"system":"http://terminology.hl7.org/CodeSystem/v2-0203","code":"MR"}]},"system":"https://madie.cms.gov/","value":"NoscreNorefAsseModDxNocp2"}],"active":true,"name":[{"use":"usual","text":"NoscreNorefAsseModDxNocp2","family":"OCCURPass1","given":["NoscreNorefAsseModDxNocp2OCCURPass1"]}],"gender":"male","birthDate":"1952-11-23","address":[{"text":"NoscreNorefAsseModDxNocp2, Screened Not at risk Assessed Severely Malnourished Diagnosed Care Plan, ID=NoscreNorefAsseModDxNocp2, DOB: 14 May 1950"}]},"request":{"method":"PUT","url":"Patient/867f00f9-facf-41e7-9925-a22a944e01bb"}},{"fullUrl":"https://madie.cms.gov/Encounter/64d7e5ca-c5f8-4824-82e4-b43896a6af80","resource":{"resourceType":"Encounter","id":"64d7e5ca-c5f8-4824-82e4-b43896a6af80","meta":{"profile":["http://hl7.org/fhir/us/qicore/StructureDefinition/qicore-encounter"]},"status":"finished","class":{"system":"http://terminology.hl7.org/CodeSystem/v3-ActCode","code":"IMP","display":"inpatient encounter"},"type":[{"coding":[{"system":"http://snomed.info/sct","code":"183452005"}]}],"subject":{"reference":"Patient/867f00f9-facf-41e7-9925-a22a944e01bb"},"period":{"start":"2026-02-01T08:00:00.000Z","end":"2026-02-07T08:15:00.000Z"}},"request":{"method":"PUT","url":"Encounter/64d7e5ca-c5f8-4824-82e4-b43896a6af80"}},{"fullUrl":"https://madie.cms.gov/Condition/0d67e4b4-5dcb-4ab5-adc8-42704f60939b","resource":{"resourceType":"Condition","id":"0d67e4b4-5dcb-4ab5-adc8-42704f60939b","meta":{"profile":["http://hl7.org/fhir/us/qicore/StructureDefinition/qicore-condition"]},"clinicalStatus":{"coding":[{"system":"http://terminology.hl7.org/CodeSystem/condition-clinical","code":"active","display":"Active","userSelected":true}]},"verificationStatus":{"coding":[{"system":"http://terminology.hl7.org/CodeSystem/condition-ver-status","code":"confirmed","display":"Confirmed","userSelected":true}]},"category":[{"coding":[{"system":"http://terminology.hl7.org/CodeSystem/condition-category","code":"encounter-diagnosis","display":"Encounter Diagnosis","userSelected":true}]}],"code":{"coding":[{"system":"http://hl7.org/fhir/sid/icd-10-cm","code":"T730XXD","display":"Starvation, subsequent encounter","userSelected":true}]},"subject":{"reference":"Patient/867f00f9-facf-41e7-9925-a22a944e01bb"},"onsetPeriod":{"start":"2026-02-01T08:00:00.000+00:00"},"recordedDate":"2026-02-01T11:00:00.000+00:00"},"request":{"method":"PUT","url":"Condition/0d67e4b4-5dcb-4ab5-adc8-42704f60939b"}},{"fullUrl":"https://madie.cms.gov/Observation/6e0e9fec-56a0-4085-95a9-01f069d849fd","resource":{"resourceType":"Observation","id":"6e0e9fec-56a0-4085-95a9-01f069d849fd","meta":{"profile":["http://hl7.org/fhir/us/qicore/StructureDefinition/qicore-observation"]},"status":"final","category":[{"coding":[{"system":"http://terminology.hl7.org/CodeSystem/observation-category","code":"survey","display":"Survey"}]}],"code":{"coding":[{"system":"http://loinc.org","code":"75303-8","display":"Nutrition assessment narrative","userSelected":true}]},"subject":{"reference":"Patient/867f00f9-facf-41e7-9925-a22a944e01bb"},"effectiveDateTime":"2026-02-01T10:00:00.000+00:00","valueCodeableConcept":{"coding":[{"system":"http://snomed.info/sct","code":"371597004","display":"Emaciated (finding)","userSelected":true}]}},"request":{"method":"PUT","url":"Observation/6e0e9fec-56a0-4085-95a9-01f069d849fd"}},{"fullUrl":"https://madie.cms.gov/Coverage/aadae301-969a-4551-a459-b438093b38f7","resource":{"resourceType":"Coverage","id":"aadae301-969a-4551-a459-b438093b38f7","meta":{"profile":["http://hl7.org/fhir/us/qicore/StructureDefinition/qicore-coverage"]},"status":"active","type":{"coding":[{"system":"https://nahdo.org/sopt","version":"9.2","code":"11","display":"Medicare Managed Care (Includes Medicare Advantage Plans)"}]},"beneficiary":{"reference":"Patient/867f00f9-facf-41e7-9925-a22a944e01bb"},"period":{"start":"2025-10-01T00:00:00+00:00"},"payor":[{"reference":"Organization/c63d4b4b-0d42-448b-9f3e-d6db4649b308"}]},"request":{"method":"PUT","url":"Coverage/aadae301-969a-4551-a459-b438093b38f7"}},{"fullUrl":"https://madie.cms.gov/Organization/c63d4b4b-0d42-448b-9f3e-d6db4649b308","resource":{"resourceType":"Organization","id":"c63d4b4b-0d42-448b-9f3e-d6db4649b308","meta":{"profile":["http://hl7.org/fhir/us/qicore/StructureDefinition/qicore-organization"]},"identifier":[{"use":"temp","system":"urn:oid:2.16.840.1.113883.4.4","value":"21-3259825"}],"active":true,"type":[{"coding":[{"system":"http://terminology.hl7.org/CodeSystem/organization-type","code":"pay","display":"Payer"}]}],"name":"Blue Cross Blue Shield of Texas","telecom":[{"system":"phone","value":"(+1) 972-766-6900"}],"address":[{"use":"billing","type":"postal","line":["P.O. Box 660044"],"city":"Dallas","state":"TX","postalCode":"75266-0044","country":"USA"}]},"request":{"method":"PUT","url":"Organization/c63d4b4b-0d42-448b-9f3e-d6db4649b308"}},{"fullUrl":"https://madie.cms.gov/MeasureReport/abb4467c-1489-4e77-8959-b0b952285590","resource":{"resourceType":"MeasureReport","id":"abb4467c-1489-4e77-8959-b0b952285590","meta":{"profile":["http://hl7.org/fhir/us/cqfmeasures/StructureDefinition/test-case-cqfm"]},"contained":[{"resourceType":"Parameters","id":"52079585-f523-4641-9bcd-fd3a3372c23b-parameters","parameter":[{"name":"subject","valueString":"867f00f9-facf-41e7-9925-a22a944e01bb"}]}],"extension":[{"url":"http://hl7.org/fhir/us/cqfmeasures/StructureDefinition/cqfm-inputParameters","valueReference":{"reference":"#52079585-f523-4641-9bcd-fd3a3372c23b-parameters"}},{"url":"http://hl7.org/fhir/us/cqfmeasures/StructureDefinition/cqfm-testCaseDescription","valueMarkdown":"\tNot screened, No referral, Assessed, Severe Malnutrition, Diagnosis, No Nutrition Care Plan"}],"modifierExtension":[{"url":"http://hl7.org/fhir/us/cqfmeasures/StructureDefinition/cqfm-isTestCase","valueBoolean":true}],"status":"complete","type":"individual","measure":"https://madie.cms.gov/Measure/GlobalMalnutritionCompositeFHIR","period":{"start":"2026-01-01","end":"2026-12-31"},"group":[{"population":[{"code":{"coding":[{"system":"http://terminology.hl7.org/CodeSystem/measure-population","code":"initial-population","display":"Initial Population"}]},"count":1},{"code":{"coding":[{"system":"http://terminology.hl7.org/CodeSystem/measure-population","code":"measure-population","display":"Measure Population"}]},"count":1},{"code":{"coding":[{"system":"http://terminology.hl7.org/CodeSystem/measure-population","code":"measure-population-observation","display":"Measure Population Observation"}]},"count":0}]},{"population":[{"code":{"coding":[{"system":"http://terminology.hl7.org/CodeSystem/measure-population","code":"initial-population","display":"Initial Population"}]},"count":1},{"code":{"coding":[{"system":"http://terminology.hl7.org/CodeSystem/measure-population","code":"measure-population","display":"Measure Population"}]},"count":1},{"code":{"coding":[{"system":"http://terminology.hl7.org/CodeSystem/measure-population","code":"measure-population-observation","display":"Measure Population Observation"}]},"count":0}]},{"population":[{"code":{"coding":[{"system":"http://terminology.hl7.org/CodeSystem/measure-population","code":"initial-population","display":"Initial Population"}]},"count":1},{"code":{"coding":[{"system":"http://terminology.hl7.org/CodeSystem/measure-population","code":"measure-population","display":"Measure Population"}]},"count":1},{"code":{"coding":[{"system":"http://terminology.hl7.org/CodeSystem/measure-population","code":"measure-population-observation","display":"Measure Population Observation"}]},"count":0}]},{"population":[{"code":{"coding":[{"system":"http://terminology.hl7.org/CodeSystem/measure-population","code":"initial-population","display":"Initial Population"}]},"count":1},{"code":{"coding":[{"system":"http://terminology.hl7.org/CodeSystem/measure-population","code":"measure-population","display":"Measure Population"}]},"count":1},{"code":{"coding":[{"system":"http://terminology.hl7.org/CodeSystem/measure-population","code":"measure-population-observation","display":"Measure Population Observation"}]},"count":0}]},{"population":[{"code":{"coding":[{"system":"http://terminology.hl7.org/CodeSystem/measure-population","code":"initial-population","display":"Initial Population"}]},"count":1},{"code":{"coding":[{"system":"http://terminology.hl7.org/CodeSystem/measure-population","code":"measure-population","display":"Measure Population"}]},"count":1},{"code":{"coding":[{"system":"http://terminology.hl7.org/CodeSystem/measure-population","code":"measure-population-observation","display":"Measure Population Observation"}]},"count":0}]},{"population":[{"code":{"coding":[{"system":"http://terminology.hl7.org/CodeSystem/measure-population","code":"initial-population","display":"Initial Population"}]},"count":1},{"code":{"coding":[{"system":"http://terminology.hl7.org/CodeSystem/measure-population","code":"measure-population","display":"Measure Population"}]},"count":1},{"code":{"coding":[{"system":"http://terminology.hl7.org/CodeSystem/measure-population","code":"measure-population-observation","display":"Measure Population Observation"}]},"count":0}]}],"evaluatedResource":[{"reference":"Patient/867f00f9-facf-41e7-9925-a22a944e01bb"},{"reference":"Encounter/64d7e5ca-c5f8-4824-82e4-b43896a6af80"},{"reference":"Condition/0d67e4b4-5dcb-4ab5-adc8-42704f60939b"},{"reference":"Observation/6e0e9fec-56a0-4085-95a9-01f069d849fd"},{"reference":"Coverage/aadae301-969a-4551-a459-b438093b38f7"},{"reference":"Organization/c63d4b4b-0d42-448b-9f3e-d6db4649b308"}]},"request":{"method":"PUT","url":"MeasureReport/abb4467c-1489-4e77-8959-b0b952285590"}}]}