{"resourceType":"Bundle","id":"tests-5b1d3894-204b-405a-8469-85bf058631e2-bundle","type":"transaction","entry":[{"fullUrl":"https://madie.cms.gov/Patient/5b1d3894-204b-405a-8469-85bf058631e2","resource":{"resourceType":"Patient","id":"5b1d3894-204b-405a-8469-85bf058631e2","meta":{"profile":["http://hl7.org/fhir/us/qicore/StructureDefinition/qicore-patient"]},"text":{"status":"generated","div":"<div xmlns=\"http://www.w3.org/1999/xhtml\"><div class=\"hapiHeaderText\">NoscreRefAsseModDxNocp2, , <b> </b></div><table class=\"hapiPropertyTable\"><tbody><tr><td>Identifier</td><td>NoscreRefAsseModDxNocp2</td></tr><tr><td>Date of birth</td><td><span>14 May 1950</span></td></tr></tbody></table></div>"},"extension":[{"url":"http://hl7.org/fhir/us/core/StructureDefinition/us-core-race","extension":[{"url":"ombCategory","valueCoding":{"system":"urn:oid:2.16.840.1.113883.6.238","code":"2106-3","display":"White","userSelected":true}},{"url":"text","valueString":"White"}]},{"url":"http://hl7.org/fhir/us/core/StructureDefinition/us-core-ethnicity","extension":[{"url":"ombCategory","valueCoding":{"system":"urn:oid:2.16.840.1.113883.6.238","code":"2186-5","display":"Not Hispanic or Latino","userSelected":true}},{"url":"text","valueString":"Not Hispanic or Latino"}]}],"identifier":[{"type":{"coding":[{"system":"http://terminology.hl7.org/CodeSystem/v2-0203","code":"MR"}]},"system":"https://madie.cms.gov/","value":"NoscreRefAsseModDxNocp2"}],"active":true,"name":[{"use":"usual","text":"NoscreRefAsseModDxNocp2","family":"OCCURPass4","given":["NoscreRefAsseModDxNocp2OCCURPass4"]}],"gender":"male","birthDate":"1937-11-06","address":[{"text":"NoscreRefAsseModDxNocp2, Screened Not at risk Assessed Severely Malnourished Diagnosed Care Plan, ID=NoscreRefAsseModDxNocp2, DOB: 14 May 1950"}]},"request":{"method":"PUT","url":"Patient/5b1d3894-204b-405a-8469-85bf058631e2"}},{"fullUrl":"https://madie.cms.gov/Encounter/01fa7b09-f036-4721-b23a-803df2ff8b1c","resource":{"resourceType":"Encounter","id":"01fa7b09-f036-4721-b23a-803df2ff8b1c","meta":{"profile":["http://hl7.org/fhir/us/qicore/StructureDefinition/qicore-encounter"]},"status":"finished","class":{"system":"http://terminology.hl7.org/CodeSystem/v3-ActCode","code":"IMP","display":"inpatient encounter"},"type":[{"coding":[{"system":"http://snomed.info/sct","code":"183452005"}]}],"subject":{"reference":"Patient/5b1d3894-204b-405a-8469-85bf058631e2"},"period":{"start":"2026-02-01T08:00:00.000Z","end":"2026-02-07T08:15:00.000Z"}},"request":{"method":"PUT","url":"Encounter/01fa7b09-f036-4721-b23a-803df2ff8b1c"}},{"fullUrl":"https://madie.cms.gov/Condition/4226ffe8-bd45-4440-9757-36299564fe5e","resource":{"resourceType":"Condition","id":"4226ffe8-bd45-4440-9757-36299564fe5e","meta":{"profile":["http://hl7.org/fhir/us/qicore/StructureDefinition/qicore-condition"]},"clinicalStatus":{"coding":[{"system":"http://terminology.hl7.org/CodeSystem/condition-clinical","code":"active","display":"Active","userSelected":true}]},"verificationStatus":{"coding":[{"system":"http://terminology.hl7.org/CodeSystem/condition-ver-status","code":"confirmed","display":"Confirmed","userSelected":true}]},"category":[{"coding":[{"system":"http://terminology.hl7.org/CodeSystem/condition-category","code":"encounter-diagnosis","display":"Encounter Diagnosis","userSelected":true}]}],"code":{"coding":[{"system":"http://snomed.info/sct","code":"56882008","display":"Anorexia nervosa (disorder)","userSelected":true}]},"subject":{"reference":"Patient/5b1d3894-204b-405a-8469-85bf058631e2"},"onsetPeriod":{"start":"2026-02-01T08:00:00.000+00:00"},"recordedDate":"2026-02-01T11:00:00.000+00:00"},"request":{"method":"PUT","url":"Condition/4226ffe8-bd45-4440-9757-36299564fe5e"}},{"fullUrl":"https://madie.cms.gov/Observation/cf5bb9cf-6d10-418f-9127-9e7c00edb1f1","resource":{"resourceType":"Observation","id":"cf5bb9cf-6d10-418f-9127-9e7c00edb1f1","meta":{"profile":["http://hl7.org/fhir/us/qicore/StructureDefinition/qicore-observation"]},"status":"final","category":[{"coding":[{"system":"http://terminology.hl7.org/CodeSystem/observation-category","code":"survey","display":"Survey"}]}],"code":{"coding":[{"system":"http://loinc.org","code":"75282-4","display":"Nutrition assessment panel","userSelected":true}]},"subject":{"reference":"Patient/5b1d3894-204b-405a-8469-85bf058631e2"},"effectiveDateTime":"2026-02-01T10:00:00.000+00:00","valueCodeableConcept":{"coding":[{"system":"http://snomed.info/sct","code":"272588001","display":"Malnutrition (calorie) (finding)","userSelected":true}]}},"request":{"method":"PUT","url":"Observation/cf5bb9cf-6d10-418f-9127-9e7c00edb1f1"}},{"fullUrl":"https://madie.cms.gov/Procedure/035e94bd-bfa8-4376-87f2-73b3034496a9","resource":{"resourceType":"Procedure","id":"035e94bd-bfa8-4376-87f2-73b3034496a9","meta":{"profile":["http://hl7.org/fhir/us/qicore/StructureDefinition/qicore-procedure"]},"extension":[{"url":"http://hl7.org/fhir/us/qicore/StructureDefinition/qicore-recorded","valueDateTime":"2026-02-01T11:30:00.000Z"}],"status":"completed","code":{"coding":[{"system":"http://snomed.info/sct","code":"306165000","display":"Referral to hospital-based dietetics service (procedure)"}],"text":"Referral to hospital-based dietetics service (procedure)"},"subject":{"reference":"Patient/5b1d3894-204b-405a-8469-85bf058631e2"},"encounter":{"reference":"Encounter/NoscreRefAsseModDxNocp2OCCURPass4"},"performedPeriod":{"start":"2026-02-01T11:30:00.000Z","end":"2026-02-07T08:15:00.000Z"}},"request":{"method":"PUT","url":"Procedure/035e94bd-bfa8-4376-87f2-73b3034496a9"}},{"fullUrl":"https://madie.cms.gov/Coverage/5c501774-fc4b-4625-8ddf-af013a0e7b7b","resource":{"resourceType":"Coverage","id":"5c501774-fc4b-4625-8ddf-af013a0e7b7b","meta":{"profile":["http://hl7.org/fhir/us/qicore/StructureDefinition/qicore-coverage"]},"status":"active","type":{"coding":[{"system":"https://nahdo.org/sopt","version":"9.2","code":"11","display":"Medicare Managed Care (Includes Medicare Advantage Plans)"}]},"beneficiary":{"reference":"Patient/5b1d3894-204b-405a-8469-85bf058631e2"},"period":{"start":"2025-10-01T00:00:00+00:00"},"payor":[{"reference":"Organization/f406d693-d5e9-452f-a31c-531887d809c7"}]},"request":{"method":"PUT","url":"Coverage/5c501774-fc4b-4625-8ddf-af013a0e7b7b"}},{"fullUrl":"https://madie.cms.gov/Organization/f406d693-d5e9-452f-a31c-531887d809c7","resource":{"resourceType":"Organization","id":"f406d693-d5e9-452f-a31c-531887d809c7","meta":{"profile":["http://hl7.org/fhir/us/qicore/StructureDefinition/qicore-organization"]},"identifier":[{"use":"temp","system":"urn:oid:2.16.840.1.113883.4.4","value":"21-3259825"}],"active":true,"type":[{"coding":[{"system":"http://terminology.hl7.org/CodeSystem/organization-type","code":"pay","display":"Payer"}]}],"name":"Blue Cross Blue Shield of Texas","telecom":[{"system":"phone","value":"(+1) 972-766-6900"}],"address":[{"use":"billing","type":"postal","line":["P.O. Box 660044"],"city":"Dallas","state":"TX","postalCode":"75266-0044","country":"USA"}]},"request":{"method":"PUT","url":"Organization/f406d693-d5e9-452f-a31c-531887d809c7"}},{"fullUrl":"https://madie.cms.gov/MeasureReport/bca36d66-0b61-4c11-b260-e2eb873e46d1","resource":{"resourceType":"MeasureReport","id":"bca36d66-0b61-4c11-b260-e2eb873e46d1","meta":{"profile":["http://hl7.org/fhir/us/cqfmeasures/StructureDefinition/test-case-cqfm"]},"contained":[{"resourceType":"Parameters","id":"48cea4d6-93a8-4eae-921e-e815519abdf8-parameters","parameter":[{"name":"subject","valueString":"5b1d3894-204b-405a-8469-85bf058631e2"}]}],"extension":[{"url":"http://hl7.org/fhir/us/cqfmeasures/StructureDefinition/cqfm-inputParameters","valueReference":{"reference":"#48cea4d6-93a8-4eae-921e-e815519abdf8-parameters"}},{"url":"http://hl7.org/fhir/us/cqfmeasures/StructureDefinition/cqfm-testCaseDescription","valueMarkdown":"Not Screened, Referral, Assessed, Severe Malnutrition, Diagnosis, No Nutrition Care Plan"}],"modifierExtension":[{"url":"http://hl7.org/fhir/us/cqfmeasures/StructureDefinition/cqfm-isTestCase","valueBoolean":true}],"status":"complete","type":"individual","measure":"https://madie.cms.gov/Measure/GlobalMalnutritionCompositeFHIR","period":{"start":"2026-01-01","end":"2026-12-31"},"group":[{"population":[{"code":{"coding":[{"system":"http://terminology.hl7.org/CodeSystem/measure-population","code":"initial-population","display":"Initial Population"}]},"count":1},{"code":{"coding":[{"system":"http://terminology.hl7.org/CodeSystem/measure-population","code":"measure-population","display":"Measure Population"}]},"count":1},{"code":{"coding":[{"system":"http://terminology.hl7.org/CodeSystem/measure-population","code":"measure-population-observation","display":"Measure Population Observation"}]},"count":1}]},{"population":[{"code":{"coding":[{"system":"http://terminology.hl7.org/CodeSystem/measure-population","code":"initial-population","display":"Initial Population"}]},"count":1},{"code":{"coding":[{"system":"http://terminology.hl7.org/CodeSystem/measure-population","code":"measure-population","display":"Measure Population"}]},"count":1},{"code":{"coding":[{"system":"http://terminology.hl7.org/CodeSystem/measure-population","code":"measure-population-observation","display":"Measure Population Observation"}]},"count":1}]},{"population":[{"code":{"coding":[{"system":"http://terminology.hl7.org/CodeSystem/measure-population","code":"initial-population","display":"Initial Population"}]},"count":1},{"code":{"coding":[{"system":"http://terminology.hl7.org/CodeSystem/measure-population","code":"measure-population","display":"Measure Population"}]},"count":1},{"code":{"coding":[{"system":"http://terminology.hl7.org/CodeSystem/measure-population","code":"measure-population-observation","display":"Measure Population Observation"}]},"count":1}]},{"population":[{"code":{"coding":[{"system":"http://terminology.hl7.org/CodeSystem/measure-population","code":"initial-population","display":"Initial Population"}]},"count":1},{"code":{"coding":[{"system":"http://terminology.hl7.org/CodeSystem/measure-population","code":"measure-population","display":"Measure Population"}]},"count":1},{"code":{"coding":[{"system":"http://terminology.hl7.org/CodeSystem/measure-population","code":"measure-population-observation","display":"Measure Population Observation"}]},"count":0}]},{"population":[{"code":{"coding":[{"system":"http://terminology.hl7.org/CodeSystem/measure-population","code":"initial-population","display":"Initial Population"}]},"count":1},{"code":{"coding":[{"system":"http://terminology.hl7.org/CodeSystem/measure-population","code":"measure-population","display":"Measure Population"}]},"count":1},{"code":{"coding":[{"system":"http://terminology.hl7.org/CodeSystem/measure-population","code":"measure-population-observation","display":"Measure Population Observation"}]},"count":3}]},{"population":[{"code":{"coding":[{"system":"http://terminology.hl7.org/CodeSystem/measure-population","code":"initial-population","display":"Initial Population"}]},"count":1},{"code":{"coding":[{"system":"http://terminology.hl7.org/CodeSystem/measure-population","code":"measure-population","display":"Measure Population"}]},"count":1},{"code":{"coding":[{"system":"http://terminology.hl7.org/CodeSystem/measure-population","code":"measure-population-observation","display":"Measure Population Observation"}]},"count":75}]}],"evaluatedResource":[{"reference":"Patient/5b1d3894-204b-405a-8469-85bf058631e2"},{"reference":"Encounter/01fa7b09-f036-4721-b23a-803df2ff8b1c"},{"reference":"Condition/4226ffe8-bd45-4440-9757-36299564fe5e"},{"reference":"Observation/cf5bb9cf-6d10-418f-9127-9e7c00edb1f1"},{"reference":"Procedure/035e94bd-bfa8-4376-87f2-73b3034496a9"},{"reference":"Coverage/5c501774-fc4b-4625-8ddf-af013a0e7b7b"},{"reference":"Organization/f406d693-d5e9-452f-a31c-531887d809c7"}]},"request":{"method":"PUT","url":"MeasureReport/bca36d66-0b61-4c11-b260-e2eb873e46d1"}}]}