{"resourceType":"Bundle","id":"tests-38a8eed5-6770-4cfd-9a80-db7ebc6eae80-bundle","type":"transaction","entry":[{"fullUrl":"https://madie.cms.gov/Patient/38a8eed5-6770-4cfd-9a80-db7ebc6eae80","resource":{"resourceType":"Patient","id":"38a8eed5-6770-4cfd-9a80-db7ebc6eae80","meta":{"profile":["http://hl7.org/fhir/us/qicore/StructureDefinition/qicore-patient"]},"text":{"status":"generated","div":"<div xmlns=\"http://www.w3.org/1999/xhtml\"><div class=\"hapiHeaderText\">ScreAtriNorefAsseModNodxCp2, , <b> </b></div><table class=\"hapiPropertyTable\"><tbody><tr><td>Identifier</td><td>ScreAtriNorefAsseModNodxCp2</td></tr><tr><td>Date of birth</td><td><span>14 May 1950</span></td></tr></tbody></table></div>"},"extension":[{"url":"http://hl7.org/fhir/us/core/StructureDefinition/us-core-race","extension":[{"url":"ombCategory","valueCoding":{"system":"urn:oid:2.16.840.1.113883.6.238","code":"2054-5","display":"BLack","userSelected":true}},{"url":"text","valueString":"Black"}]},{"url":"http://hl7.org/fhir/us/core/StructureDefinition/us-core-ethnicity","extension":[{"url":"ombCategory","valueCoding":{"system":"urn:oid:2.16.840.1.113883.6.238","code":"2186-5","display":"Not Hispanic or Latino","userSelected":true}},{"url":"text","valueString":"Not Hispanic or Latino"}]}],"identifier":[{"type":{"coding":[{"system":"http://terminology.hl7.org/CodeSystem/v2-0203","code":"MR"}]},"system":"https://madie.cms.gov/","value":"ScreAtriNorefAsseModNodxCp2"}],"active":true,"name":[{"use":"usual","text":"ScreAtriNorefAsseModNodxCp2","family":"DENOMPass4","given":["ScreAtriNorefAsseModNodxCp2DENOMPass4"]}],"gender":"male","birthDate":"1957-03-24","address":[{"text":"ScreAtriNorefAsseModNodxCp2, Screened Not at risk Assessed Severely Malnourished Diagnosed Care Plan, ID=ScreAtriNorefAsseModNodxCp2, DOB: 14 May 1950"}]},"request":{"method":"PUT","url":"Patient/38a8eed5-6770-4cfd-9a80-db7ebc6eae80"}},{"fullUrl":"https://madie.cms.gov/Encounter/c6801ed2-76c6-4626-b7a4-b85b7ab46023","resource":{"resourceType":"Encounter","id":"c6801ed2-76c6-4626-b7a4-b85b7ab46023","meta":{"profile":["http://hl7.org/fhir/us/qicore/StructureDefinition/qicore-encounter"]},"status":"finished","class":{"system":"http://terminology.hl7.org/CodeSystem/v3-ActCode","code":"IMP","display":"inpatient encounter"},"type":[{"coding":[{"system":"http://snomed.info/sct","code":"183452005"}]}],"subject":{"reference":"Patient/38a8eed5-6770-4cfd-9a80-db7ebc6eae80"},"period":{"start":"2026-02-01T08:00:00.000Z","end":"2026-02-07T08:15:00.000Z"}},"request":{"method":"PUT","url":"Encounter/c6801ed2-76c6-4626-b7a4-b85b7ab46023"}},{"fullUrl":"https://madie.cms.gov/Observation/8c2480ec-948f-486f-b18d-886ca58fc0e7","resource":{"resourceType":"Observation","id":"8c2480ec-948f-486f-b18d-886ca58fc0e7","meta":{"profile":["http://hl7.org/fhir/us/qicore/StructureDefinition/qicore-observation"]},"status":"final","category":[{"coding":[{"system":"http://terminology.hl7.org/CodeSystem/observation-category","code":"survey","display":"Survey"}]}],"code":{"coding":[{"system":"http://loinc.org","code":"98968-1","display":"Initial screening NRS_2002","userSelected":true}]},"subject":{"reference":"Patient/38a8eed5-6770-4cfd-9a80-db7ebc6eae80"},"effectiveDateTime":"2026-02-01T09:00:00.000+00:00","valueCodeableConcept":{"coding":[{"system":"http://loinc.org","code":"LA27538-0","display":"At risk for malnutrition","userSelected":true}]}},"request":{"method":"PUT","url":"Observation/8c2480ec-948f-486f-b18d-886ca58fc0e7"}},{"fullUrl":"https://madie.cms.gov/Observation/21982e6c-bf73-414f-a27c-bf2608b281e9","resource":{"resourceType":"Observation","id":"21982e6c-bf73-414f-a27c-bf2608b281e9","meta":{"profile":["http://hl7.org/fhir/us/qicore/StructureDefinition/qicore-observation"]},"status":"final","category":[{"coding":[{"system":"http://terminology.hl7.org/CodeSystem/observation-category","code":"survey","display":"Survey"}]}],"code":{"coding":[{"system":"http://loinc.org","code":"75303-8","display":"Nutrition assessment narrative","userSelected":true}]},"subject":{"reference":"Patient/38a8eed5-6770-4cfd-9a80-db7ebc6eae80"},"effectiveDateTime":"2026-02-01T10:00:00.000+00:00"},"request":{"method":"PUT","url":"Observation/21982e6c-bf73-414f-a27c-bf2608b281e9"}},{"fullUrl":"https://madie.cms.gov/Procedure/a870aced-4ccf-4c6e-9cb0-870cf59f46dd","resource":{"resourceType":"Procedure","id":"a870aced-4ccf-4c6e-9cb0-870cf59f46dd","meta":{"profile":["http://hl7.org/fhir/us/qicore/StructureDefinition/qicore-procedure"]},"extension":[{"url":"http://hl7.org/fhir/us/qicore/StructureDefinition/qicore-recorded","valueDateTime":"2026-02-02T11:30:00.000Z"}],"status":"completed","code":{"coding":[{"system":"http://snomed.info/sct","code":"1279742004","display":"Development of a nutrition care plan (procedure)"}],"text":"Development of a nutrition care plan (procedure)"},"subject":{"reference":"Patient/38a8eed5-6770-4cfd-9a80-db7ebc6eae80"},"encounter":{"reference":"Encounter/ScreAtriNorefAsseModNodxCp2DENOMPass4"},"performedPeriod":{"start":"2026-02-01T11:30:00.000Z","end":"2026-02-07T08:15:00.000Z"}},"request":{"method":"PUT","url":"Procedure/a870aced-4ccf-4c6e-9cb0-870cf59f46dd"}},{"fullUrl":"https://madie.cms.gov/Coverage/01361136-ea2e-4d18-b1da-1faddff2888d","resource":{"resourceType":"Coverage","id":"01361136-ea2e-4d18-b1da-1faddff2888d","meta":{"profile":["http://hl7.org/fhir/us/qicore/StructureDefinition/qicore-coverage"]},"status":"active","type":{"coding":[{"system":"https://nahdo.org/sopt","version":"9.2","code":"11","display":"Medicare Managed Care (Includes Medicare Advantage Plans)"}]},"beneficiary":{"reference":"Patient/38a8eed5-6770-4cfd-9a80-db7ebc6eae80"},"period":{"start":"2024-10-01T00:00:00+00:00"},"payor":[{"reference":"Organization/abeb1d75-2ed3-448f-a751-4a8853f40b1b"}]},"request":{"method":"PUT","url":"Coverage/01361136-ea2e-4d18-b1da-1faddff2888d"}},{"fullUrl":"https://madie.cms.gov/Organization/abeb1d75-2ed3-448f-a751-4a8853f40b1b","resource":{"resourceType":"Organization","id":"abeb1d75-2ed3-448f-a751-4a8853f40b1b","meta":{"profile":["http://hl7.org/fhir/us/qicore/StructureDefinition/qicore-organization"]},"identifier":[{"use":"temp","system":"urn:oid:2.16.840.1.113883.4.4","value":"21-3259825"}],"active":true,"type":[{"coding":[{"system":"http://terminology.hl7.org/CodeSystem/organization-type","code":"pay","display":"Payer"}]}],"name":"Blue Cross Blue Shield of Texas","telecom":[{"system":"phone","value":"(+1) 972-766-6900"}],"address":[{"use":"billing","type":"postal","line":["P.O. Box 660044"],"city":"Dallas","state":"TX","postalCode":"75266-0044","country":"USA"}]},"request":{"method":"PUT","url":"Organization/abeb1d75-2ed3-448f-a751-4a8853f40b1b"}},{"fullUrl":"https://madie.cms.gov/MeasureReport/12a2f3b2-533d-4647-8c42-4dab08ca7602","resource":{"resourceType":"MeasureReport","id":"12a2f3b2-533d-4647-8c42-4dab08ca7602","meta":{"profile":["http://hl7.org/fhir/us/cqfmeasures/StructureDefinition/test-case-cqfm"]},"contained":[{"resourceType":"Parameters","id":"ffae1969-1ed9-4fef-91e5-ccdab3d67b9f-parameters","parameter":[{"name":"subject","valueString":"38a8eed5-6770-4cfd-9a80-db7ebc6eae80"}]}],"extension":[{"url":"http://hl7.org/fhir/us/cqfmeasures/StructureDefinition/cqfm-inputParameters","valueReference":{"reference":"#ffae1969-1ed9-4fef-91e5-ccdab3d67b9f-parameters"}},{"url":"http://hl7.org/fhir/us/cqfmeasures/StructureDefinition/cqfm-testCaseDescription","valueMarkdown":"Screened, At Risk, Assessed, Missing Assessment Result"}],"modifierExtension":[{"url":"http://hl7.org/fhir/us/cqfmeasures/StructureDefinition/cqfm-isTestCase","valueBoolean":true}],"status":"complete","type":"individual","measure":"https://madie.cms.gov/Measure/GlobalMalnutritionCompositeFHIR","period":{"start":"2026-01-01","end":"2026-12-31"},"group":[{"population":[{"code":{"coding":[{"system":"http://terminology.hl7.org/CodeSystem/measure-population","code":"initial-population","display":"Initial Population"}]},"count":1},{"code":{"coding":[{"system":"http://terminology.hl7.org/CodeSystem/measure-population","code":"measure-population","display":"Measure Population"}]},"count":1},{"code":{"coding":[{"system":"http://terminology.hl7.org/CodeSystem/measure-population","code":"measure-population-observation","display":"Measure Population Observation"}]},"count":1}]},{"population":[{"code":{"coding":[{"system":"http://terminology.hl7.org/CodeSystem/measure-population","code":"initial-population","display":"Initial Population"}]},"count":1},{"code":{"coding":[{"system":"http://terminology.hl7.org/CodeSystem/measure-population","code":"measure-population","display":"Measure Population"}]},"count":1},{"code":{"coding":[{"system":"http://terminology.hl7.org/CodeSystem/measure-population","code":"measure-population-observation","display":"Measure Population Observation"}]},"count":0}]},{"population":[{"code":{"coding":[{"system":"http://terminology.hl7.org/CodeSystem/measure-population","code":"initial-population","display":"Initial Population"}]},"count":1},{"code":{"coding":[{"system":"http://terminology.hl7.org/CodeSystem/measure-population","code":"measure-population","display":"Measure Population"}]},"count":1},{"code":{"coding":[{"system":"http://terminology.hl7.org/CodeSystem/measure-population","code":"measure-population-observation","display":"Measure Population Observation"}]},"count":0}]},{"population":[{"code":{"coding":[{"system":"http://terminology.hl7.org/CodeSystem/measure-population","code":"initial-population","display":"Initial Population"}]},"count":1},{"code":{"coding":[{"system":"http://terminology.hl7.org/CodeSystem/measure-population","code":"measure-population","display":"Measure Population"}]},"count":1},{"code":{"coding":[{"system":"http://terminology.hl7.org/CodeSystem/measure-population","code":"measure-population-observation","display":"Measure Population Observation"}]},"count":0}]},{"population":[{"code":{"coding":[{"system":"http://terminology.hl7.org/CodeSystem/measure-population","code":"initial-population","display":"Initial Population"}]},"count":1},{"code":{"coding":[{"system":"http://terminology.hl7.org/CodeSystem/measure-population","code":"measure-population","display":"Measure Population"}]},"count":1},{"code":{"coding":[{"system":"http://terminology.hl7.org/CodeSystem/measure-population","code":"measure-population-observation","display":"Measure Population Observation"}]},"count":1}]},{"population":[{"code":{"coding":[{"system":"http://terminology.hl7.org/CodeSystem/measure-population","code":"initial-population","display":"Initial Population"}]},"count":1},{"code":{"coding":[{"system":"http://terminology.hl7.org/CodeSystem/measure-population","code":"measure-population","display":"Measure Population"}]},"count":1},{"code":{"coding":[{"system":"http://terminology.hl7.org/CodeSystem/measure-population","code":"measure-population-observation","display":"Measure Population Observation"}]},"count":50}]}],"evaluatedResource":[{"reference":"Patient/38a8eed5-6770-4cfd-9a80-db7ebc6eae80"},{"reference":"Encounter/c6801ed2-76c6-4626-b7a4-b85b7ab46023"},{"reference":"Observation/8c2480ec-948f-486f-b18d-886ca58fc0e7"},{"reference":"Observation/21982e6c-bf73-414f-a27c-bf2608b281e9"},{"reference":"Procedure/a870aced-4ccf-4c6e-9cb0-870cf59f46dd"},{"reference":"Coverage/01361136-ea2e-4d18-b1da-1faddff2888d"},{"reference":"Organization/abeb1d75-2ed3-448f-a751-4a8853f40b1b"}]},"request":{"method":"PUT","url":"MeasureReport/12a2f3b2-533d-4647-8c42-4dab08ca7602"}}]}