{"resourceType":"Bundle","id":"tests-45c517bd-7c89-4ef3-a4c4-e6c5b691e07b-bundle","type":"transaction","entry":[{"fullUrl":"https://madie.cms.gov/Patient/45c517bd-7c89-4ef3-a4c4-e6c5b691e07b","resource":{"resourceType":"Patient","id":"45c517bd-7c89-4ef3-a4c4-e6c5b691e07b","meta":{"profile":["http://hl7.org/fhir/us/qicore/StructureDefinition/qicore-patient"]},"text":{"status":"generated","div":"<div xmlns=\"http://www.w3.org/1999/xhtml\"><div class=\"hapiHeaderText\">ScreNotatriRefAsseModNodxCp2, , <b> </b></div><table class=\"hapiPropertyTable\"><tbody><tr><td>Identifier</td><td>ScreNotatriRefAsseModNodxCp2</td></tr><tr><td>Date of birth</td><td><span>14 May 1950</span></td></tr></tbody></table></div>"},"extension":[{"url":"http://hl7.org/fhir/us/core/StructureDefinition/us-core-race","extension":[{"url":"ombCategory","valueCoding":{"system":"urn:oid:2.16.840.1.113883.6.238","code":"2106-3","display":"White","userSelected":true}},{"url":"text","valueString":"White"}]},{"url":"http://hl7.org/fhir/us/core/StructureDefinition/us-core-ethnicity","extension":[{"url":"ombCategory","valueCoding":{"system":"urn:oid:2.16.840.1.113883.6.238","code":"2186-5","display":"Not Hispanic or Latino","userSelected":true}},{"url":"text","valueString":"Not Hispanic or Latino"}]}],"identifier":[{"type":{"coding":[{"system":"http://terminology.hl7.org/CodeSystem/v2-0203","code":"MR"}]},"system":"https://madie.cms.gov/","value":"ScreNotatriRefAsseModNodxCp2"}],"active":true,"name":[{"use":"usual","text":"ScreNotatriRefAsseModNodxCp2","family":"OCCURPass4","given":["ScreNotatriRefAsseModNodxCp2OCCURPass4"]}],"gender":"male","birthDate":"1950-05-14","address":[{"text":"ScreNotatriRefAsseModNodxCp2, Screened Not at risk Assessed Severely Malnourished Diagnosed Care Plan, ID=ScreNotatriRefAsseModNodxCp2, DOB: 14 May 1950"}]},"request":{"method":"PUT","url":"Patient/45c517bd-7c89-4ef3-a4c4-e6c5b691e07b"}},{"fullUrl":"https://madie.cms.gov/Encounter/78452f2c-540c-4c47-bcbb-4a208d9b54ee","resource":{"resourceType":"Encounter","id":"78452f2c-540c-4c47-bcbb-4a208d9b54ee","meta":{"profile":["http://hl7.org/fhir/us/qicore/StructureDefinition/qicore-encounter"]},"status":"finished","class":{"system":"http://terminology.hl7.org/CodeSystem/v3-ActCode","code":"IMP","display":"inpatient encounter"},"type":[{"coding":[{"system":"http://snomed.info/sct","code":"183452005"}]}],"subject":{"reference":"Patient/45c517bd-7c89-4ef3-a4c4-e6c5b691e07b"},"period":{"start":"2026-02-01T08:00:00.000Z","end":"2026-02-07T08:15:00.000Z"}},"request":{"method":"PUT","url":"Encounter/78452f2c-540c-4c47-bcbb-4a208d9b54ee"}},{"fullUrl":"https://madie.cms.gov/Observation/b57df59d-b10e-4148-acab-d5e18fb65f41","resource":{"resourceType":"Observation","id":"b57df59d-b10e-4148-acab-d5e18fb65f41","meta":{"profile":["http://hl7.org/fhir/us/qicore/StructureDefinition/qicore-observation"]},"status":"final","category":[{"coding":[{"system":"http://terminology.hl7.org/CodeSystem/observation-category","code":"survey","display":"Survey"}]}],"code":{"coding":[{"system":"http://loinc.org","code":"98972-3","display":"Final screening NRS_2002","userSelected":true}]},"subject":{"reference":"Patient/45c517bd-7c89-4ef3-a4c4-e6c5b691e07b"},"effectiveDateTime":"2026-02-01T09:00:00.000+00:00","valueCodeableConcept":{"coding":[{"system":"http://loinc.org","code":"LA33699-2","display":"Not at risk for malnutrition","userSelected":true}]}},"request":{"method":"PUT","url":"Observation/b57df59d-b10e-4148-acab-d5e18fb65f41"}},{"fullUrl":"https://madie.cms.gov/Observation/b1427135-4673-4db6-b0db-6acf1fd2e9fd","resource":{"resourceType":"Observation","id":"b1427135-4673-4db6-b0db-6acf1fd2e9fd","meta":{"profile":["http://hl7.org/fhir/us/qicore/StructureDefinition/qicore-observation"]},"status":"final","category":[{"coding":[{"system":"http://terminology.hl7.org/CodeSystem/observation-category","code":"survey","display":"Survey"}]}],"code":{"coding":[{"system":"http://loinc.org","code":"75303-8","display":"Nutrition assessment narrative","userSelected":true}]},"subject":{"reference":"Patient/45c517bd-7c89-4ef3-a4c4-e6c5b691e07b"},"effectiveDateTime":"2026-02-01T10:00:00.000+00:00","valueCodeableConcept":{"coding":[{"system":"http://snomed.info/sct","code":"190606006","display":"Moderate protein energy malnutrition (finding)","userSelected":true}]}},"request":{"method":"PUT","url":"Observation/b1427135-4673-4db6-b0db-6acf1fd2e9fd"}},{"fullUrl":"https://madie.cms.gov/Procedure/9d0acef2-d9eb-4dd8-bbaa-367de0aefa39","resource":{"resourceType":"Procedure","id":"9d0acef2-d9eb-4dd8-bbaa-367de0aefa39","meta":{"profile":["http://hl7.org/fhir/us/qicore/StructureDefinition/qicore-procedure"]},"extension":[{"url":"http://hl7.org/fhir/us/qicore/StructureDefinition/qicore-recorded","valueDateTime":"2026-02-01T11:30:00.000Z"}],"status":"completed","code":{"coding":[{"system":"http://snomed.info/sct","code":"306165000","display":"Referral to hospital-based dietetics service (procedure)"}],"text":"Referral to hospital-based dietetics service (procedure)"},"subject":{"reference":"Patient/45c517bd-7c89-4ef3-a4c4-e6c5b691e07b"},"encounter":{"reference":"Encounter/ScreNotatriRefAsseModNodxCp2OCCURPass4"},"performedPeriod":{"start":"2026-02-01T11:30:00.000Z","end":"2026-02-07T08:15:00.000Z"}},"request":{"method":"PUT","url":"Procedure/9d0acef2-d9eb-4dd8-bbaa-367de0aefa39"}},{"fullUrl":"https://madie.cms.gov/Procedure/c19d6a02-d071-4335-86a2-7f6308c180f2","resource":{"resourceType":"Procedure","id":"c19d6a02-d071-4335-86a2-7f6308c180f2","meta":{"profile":["http://hl7.org/fhir/us/qicore/StructureDefinition/qicore-procedure"]},"extension":[{"url":"http://hl7.org/fhir/us/qicore/StructureDefinition/qicore-recorded","valueDateTime":"2026-02-02T11:30:00.000Z"}],"status":"completed","code":{"coding":[{"system":"http://snomed.info/sct","code":"386373004","display":"Nutrition therapy (regime/therapy)"}],"text":"Nutrition therapy (regime/therapy)"},"subject":{"reference":"Patient/45c517bd-7c89-4ef3-a4c4-e6c5b691e07b"},"encounter":{"reference":"Encounter/ScreNotatriRefAsseModNodxCp2OCCURPass4"},"performedPeriod":{"start":"2026-02-01T11:30:00.000Z","end":"2026-02-07T08:15:00.000Z"}},"request":{"method":"PUT","url":"Procedure/c19d6a02-d071-4335-86a2-7f6308c180f2"}},{"fullUrl":"https://madie.cms.gov/Coverage/6d74a136-4910-4a8f-9288-30a3f5833fe8","resource":{"resourceType":"Coverage","id":"6d74a136-4910-4a8f-9288-30a3f5833fe8","meta":{"profile":["http://hl7.org/fhir/us/qicore/StructureDefinition/qicore-coverage"]},"status":"active","type":{"coding":[{"system":"https://nahdo.org/sopt","version":"9.2","code":"11","display":"Medicare Managed Care (Includes Medicare Advantage Plans)"}]},"beneficiary":{"reference":"Patient/45c517bd-7c89-4ef3-a4c4-e6c5b691e07b"},"period":{"start":"2025-10-01T00:00:00+00:00"},"payor":[{"reference":"Organization/87eae1a8-5f44-4640-89f8-6162f603eec4"}]},"request":{"method":"PUT","url":"Coverage/6d74a136-4910-4a8f-9288-30a3f5833fe8"}},{"fullUrl":"https://madie.cms.gov/Organization/87eae1a8-5f44-4640-89f8-6162f603eec4","resource":{"resourceType":"Organization","id":"87eae1a8-5f44-4640-89f8-6162f603eec4","meta":{"profile":["http://hl7.org/fhir/us/qicore/StructureDefinition/qicore-organization"]},"identifier":[{"use":"temp","system":"urn:oid:2.16.840.1.113883.4.4","value":"21-3259825"}],"active":true,"type":[{"coding":[{"system":"http://terminology.hl7.org/CodeSystem/organization-type","code":"pay","display":"Payer"}]}],"name":"Blue Cross Blue Shield of Texas","telecom":[{"system":"phone","value":"(+1) 972-766-6900"}],"address":[{"use":"billing","type":"postal","line":["P.O. Box 660044"],"city":"Dallas","state":"TX","postalCode":"75266-0044","country":"USA"}]},"request":{"method":"PUT","url":"Organization/87eae1a8-5f44-4640-89f8-6162f603eec4"}},{"fullUrl":"https://madie.cms.gov/MeasureReport/b78e1754-2cf5-4e57-b5ed-af84dc7a88d7","resource":{"resourceType":"MeasureReport","id":"b78e1754-2cf5-4e57-b5ed-af84dc7a88d7","meta":{"profile":["http://hl7.org/fhir/us/cqfmeasures/StructureDefinition/test-case-cqfm"]},"contained":[{"resourceType":"Parameters","id":"2588faf4-6c02-49b1-871d-7fe0e72afeec-parameters","parameter":[{"name":"subject","valueString":"45c517bd-7c89-4ef3-a4c4-e6c5b691e07b"}]}],"extension":[{"url":"http://hl7.org/fhir/us/cqfmeasures/StructureDefinition/cqfm-inputParameters","valueReference":{"reference":"#2588faf4-6c02-49b1-871d-7fe0e72afeec-parameters"}},{"url":"http://hl7.org/fhir/us/cqfmeasures/StructureDefinition/cqfm-testCaseDescription","valueMarkdown":"Screened, Not at Risk, Referral, Assessed, Moderately Malnourished, No Diagnosis, Nutrition Care Plan"}],"modifierExtension":[{"url":"http://hl7.org/fhir/us/cqfmeasures/StructureDefinition/cqfm-isTestCase","valueBoolean":true}],"status":"complete","type":"individual","measure":"https://madie.cms.gov/Measure/GlobalMalnutritionCompositeFHIR","period":{"start":"2026-01-01","end":"2026-12-31"},"group":[{"population":[{"code":{"coding":[{"system":"http://terminology.hl7.org/CodeSystem/measure-population","code":"initial-population","display":"Initial Population"}]},"count":1},{"code":{"coding":[{"system":"http://terminology.hl7.org/CodeSystem/measure-population","code":"measure-population","display":"Measure Population"}]},"count":1},{"code":{"coding":[{"system":"http://terminology.hl7.org/CodeSystem/measure-population","code":"measure-population-observation","display":"Measure Population Observation"}]},"count":1}]},{"population":[{"code":{"coding":[{"system":"http://terminology.hl7.org/CodeSystem/measure-population","code":"initial-population","display":"Initial Population"}]},"count":1},{"code":{"coding":[{"system":"http://terminology.hl7.org/CodeSystem/measure-population","code":"measure-population","display":"Measure Population"}]},"count":1},{"code":{"coding":[{"system":"http://terminology.hl7.org/CodeSystem/measure-population","code":"measure-population-observation","display":"Measure Population Observation"}]},"count":1}]},{"population":[{"code":{"coding":[{"system":"http://terminology.hl7.org/CodeSystem/measure-population","code":"initial-population","display":"Initial Population"}]},"count":1},{"code":{"coding":[{"system":"http://terminology.hl7.org/CodeSystem/measure-population","code":"measure-population","display":"Measure Population"}]},"count":1},{"code":{"coding":[{"system":"http://terminology.hl7.org/CodeSystem/measure-population","code":"measure-population-observation","display":"Measure Population Observation"}]},"count":0}]},{"population":[{"code":{"coding":[{"system":"http://terminology.hl7.org/CodeSystem/measure-population","code":"initial-population","display":"Initial Population"}]},"count":1},{"code":{"coding":[{"system":"http://terminology.hl7.org/CodeSystem/measure-population","code":"measure-population","display":"Measure Population"}]},"count":1},{"code":{"coding":[{"system":"http://terminology.hl7.org/CodeSystem/measure-population","code":"measure-population-observation","display":"Measure Population Observation"}]},"count":1}]},{"population":[{"code":{"coding":[{"system":"http://terminology.hl7.org/CodeSystem/measure-population","code":"initial-population","display":"Initial Population"}]},"count":1},{"code":{"coding":[{"system":"http://terminology.hl7.org/CodeSystem/measure-population","code":"measure-population","display":"Measure Population"}]},"count":1},{"code":{"coding":[{"system":"http://terminology.hl7.org/CodeSystem/measure-population","code":"measure-population-observation","display":"Measure Population Observation"}]},"count":3}]},{"population":[{"code":{"coding":[{"system":"http://terminology.hl7.org/CodeSystem/measure-population","code":"initial-population","display":"Initial Population"}]},"count":1},{"code":{"coding":[{"system":"http://terminology.hl7.org/CodeSystem/measure-population","code":"measure-population","display":"Measure Population"}]},"count":1},{"code":{"coding":[{"system":"http://terminology.hl7.org/CodeSystem/measure-population","code":"measure-population-observation","display":"Measure Population Observation"}]},"count":75}]}],"evaluatedResource":[{"reference":"Patient/45c517bd-7c89-4ef3-a4c4-e6c5b691e07b"},{"reference":"Encounter/78452f2c-540c-4c47-bcbb-4a208d9b54ee"},{"reference":"Observation/b57df59d-b10e-4148-acab-d5e18fb65f41"},{"reference":"Observation/b1427135-4673-4db6-b0db-6acf1fd2e9fd"},{"reference":"Procedure/9d0acef2-d9eb-4dd8-bbaa-367de0aefa39"},{"reference":"Procedure/c19d6a02-d071-4335-86a2-7f6308c180f2"},{"reference":"Coverage/6d74a136-4910-4a8f-9288-30a3f5833fe8"},{"reference":"Organization/87eae1a8-5f44-4640-89f8-6162f603eec4"}]},"request":{"method":"PUT","url":"MeasureReport/b78e1754-2cf5-4e57-b5ed-af84dc7a88d7"}}]}