{"resourceType":"Bundle","id":"tests-33a81232-f22d-446b-8911-824bf8211925-bundle","type":"transaction","entry":[{"fullUrl":"https://madie.cms.gov/Patient/33a81232-f22d-446b-8911-824bf8211925","resource":{"resourceType":"Patient","id":"33a81232-f22d-446b-8911-824bf8211925","meta":{"profile":["http://hl7.org/fhir/us/qicore/StructureDefinition/qicore-patient"]},"text":{"status":"generated","div":"<div xmlns=\"http://www.w3.org/1999/xhtml\"><div class=\"hapiHeaderText\">ScreNotatriNorefAsseModDxNocp2, , <b> </b></div><table class=\"hapiPropertyTable\"><tbody><tr><td>Identifier</td><td>ScreNotatriNorefAsseModDxNocp2</td></tr><tr><td>Date of birth</td><td><span>14 May 1950</span></td></tr></tbody></table></div>"},"extension":[{"url":"http://hl7.org/fhir/us/core/StructureDefinition/us-core-race","extension":[{"url":"ombCategory","valueCoding":{"system":"urn:oid:2.16.840.1.113883.6.238","code":"2028-9","display":"Asian","userSelected":true}},{"url":"text","valueString":"Asian"}]},{"url":"http://hl7.org/fhir/us/core/StructureDefinition/us-core-ethnicity","extension":[{"url":"ombCategory","valueCoding":{"system":"urn:oid:2.16.840.1.113883.6.238","code":"2135-2","display":"Hispanic or Latino","userSelected":true}},{"url":"text","valueString":"Hispanic or Latino"}]}],"identifier":[{"type":{"coding":[{"system":"http://terminology.hl7.org/CodeSystem/v2-0203","code":"MR"}]},"system":"https://madie.cms.gov/","value":"ScreNotatriNorefAsseModDxNocp2"}],"active":true,"name":[{"use":"usual","text":"ScreNotatriNorefAsseModDxNocp2","family":"DENOMPass1","given":["ScreNotatriNorefAsseModDxNocp2DENOMPass1"]}],"gender":"male","birthDate":"1955-12-31","address":[{"text":"ScreNotatriNorefAsseModDxNocp2, Screened Not at risk Assessed Severely Malnourished Diagnosed Care Plan, ID=ScreNotatriNorefAsseModDxNocp2, DOB: 14 May 1950"}]},"request":{"method":"PUT","url":"Patient/33a81232-f22d-446b-8911-824bf8211925"}},{"fullUrl":"https://madie.cms.gov/Encounter/53d46da5-6bb1-461b-a545-4b99a257d4dd","resource":{"resourceType":"Encounter","id":"53d46da5-6bb1-461b-a545-4b99a257d4dd","meta":{"profile":["http://hl7.org/fhir/us/qicore/StructureDefinition/qicore-encounter"]},"status":"finished","class":{"system":"http://terminology.hl7.org/CodeSystem/v3-ActCode","code":"IMP","display":"inpatient encounter"},"type":[{"coding":[{"system":"http://snomed.info/sct","code":"183452005"}]}],"subject":{"reference":"Patient/33a81232-f22d-446b-8911-824bf8211925"},"period":{"start":"2026-02-01T08:00:00.000Z","end":"2026-02-07T08:15:00.000Z"}},"request":{"method":"PUT","url":"Encounter/53d46da5-6bb1-461b-a545-4b99a257d4dd"}},{"fullUrl":"https://madie.cms.gov/Condition/a1006f40-7601-4f69-bbf0-9a8c4fe99a93","resource":{"resourceType":"Condition","id":"a1006f40-7601-4f69-bbf0-9a8c4fe99a93","meta":{"profile":["http://hl7.org/fhir/us/qicore/StructureDefinition/qicore-condition"]},"clinicalStatus":{"coding":[{"system":"http://terminology.hl7.org/CodeSystem/condition-clinical","code":"active","display":"Active","userSelected":true}]},"verificationStatus":{"coding":[{"system":"http://terminology.hl7.org/CodeSystem/condition-ver-status","code":"confirmed","display":"Confirmed","userSelected":true}]},"category":[{"coding":[{"system":"http://terminology.hl7.org/CodeSystem/condition-category","code":"encounter-diagnosis","display":"Encounter Diagnosis","userSelected":true}]}],"code":{"coding":[{"system":"http://snomed.info/sct","code":"102636009","display":"Acute nutritional deficiency (finding)","userSelected":true}]},"subject":{"reference":"Patient/33a81232-f22d-446b-8911-824bf8211925"},"onsetPeriod":{"start":"2026-02-01T08:00:00.000+00:00"},"recordedDate":"2026-02-01T11:00:00.000+00:00"},"request":{"method":"PUT","url":"Condition/a1006f40-7601-4f69-bbf0-9a8c4fe99a93"}},{"fullUrl":"https://madie.cms.gov/Observation/e5c1aeab-e9b9-460f-bcc9-a3f49e7f06ae","resource":{"resourceType":"Observation","id":"e5c1aeab-e9b9-460f-bcc9-a3f49e7f06ae","meta":{"profile":["http://hl7.org/fhir/us/qicore/StructureDefinition/qicore-observation"]},"status":"final","category":[{"coding":[{"system":"http://terminology.hl7.org/CodeSystem/observation-category","code":"survey","display":"Survey"}]}],"code":{"coding":[{"system":"http://loinc.org","code":"75282-4","display":"Nutrition assessment panel","userSelected":true}]},"subject":{"reference":"Patient/33a81232-f22d-446b-8911-824bf8211925"},"effectiveDateTime":"2026-02-01T09:00:00.000+00:00","valueCodeableConcept":{"coding":[{"system":"http://snomed.info/sct","code":"448765001","display":"Unintentional weight loss (finding)","userSelected":true}]}},"request":{"method":"PUT","url":"Observation/e5c1aeab-e9b9-460f-bcc9-a3f49e7f06ae"}},{"fullUrl":"https://madie.cms.gov/Observation/bdcd2bc6-7631-4977-bbef-222fe94eef92","resource":{"resourceType":"Observation","id":"bdcd2bc6-7631-4977-bbef-222fe94eef92","meta":{"profile":["http://hl7.org/fhir/us/qicore/StructureDefinition/qicore-observation"]},"status":"final","category":[{"coding":[{"system":"http://terminology.hl7.org/CodeSystem/observation-category","code":"survey","display":"Survey"}]}],"code":{"coding":[{"system":"http://loinc.org","code":"98968-1","display":"Initial screening NRS_2002","userSelected":true}]},"subject":{"reference":"Patient/33a81232-f22d-446b-8911-824bf8211925"},"effectiveDateTime":"2026-02-01T10:00:00.000+00:00","valueCodeableConcept":{"coding":[{"system":"http://loinc.org","code":"LA33699-2","display":"Not at risk for malnutrition","userSelected":true}]}},"request":{"method":"PUT","url":"Observation/bdcd2bc6-7631-4977-bbef-222fe94eef92"}},{"fullUrl":"https://madie.cms.gov/Coverage/8f649325-4fa1-4a4f-9c97-1f54b66076f4","resource":{"resourceType":"Coverage","id":"8f649325-4fa1-4a4f-9c97-1f54b66076f4","meta":{"profile":["http://hl7.org/fhir/us/qicore/StructureDefinition/qicore-coverage"]},"status":"active","type":{"coding":[{"system":"https://nahdo.org/sopt","version":"9.2","code":"11","display":"Medicare Managed Care (Includes Medicare Advantage Plans)"}]},"beneficiary":{"reference":"Patient/33a81232-f22d-446b-8911-824bf8211925"},"period":{"start":"2025-10-01T00:00:00+00:00"},"payor":[{"reference":"Organization/6b8d3a71-ddb8-463b-87ac-3b902405fdbc"}]},"request":{"method":"PUT","url":"Coverage/8f649325-4fa1-4a4f-9c97-1f54b66076f4"}},{"fullUrl":"https://madie.cms.gov/Organization/6b8d3a71-ddb8-463b-87ac-3b902405fdbc","resource":{"resourceType":"Organization","id":"6b8d3a71-ddb8-463b-87ac-3b902405fdbc","meta":{"profile":["http://hl7.org/fhir/us/qicore/StructureDefinition/qicore-organization"]},"identifier":[{"use":"temp","system":"urn:oid:2.16.840.1.113883.4.4","value":"21-3259825"}],"active":true,"type":[{"coding":[{"system":"http://terminology.hl7.org/CodeSystem/organization-type","code":"pay","display":"Payer"}]}],"name":"Blue Cross Blue Shield of Texas","telecom":[{"system":"phone","value":"(+1) 972-766-6900"}],"address":[{"use":"billing","type":"postal","line":["P.O. Box 660044"],"city":"Dallas","state":"TX","postalCode":"75266-0044","country":"USA"}]},"request":{"method":"PUT","url":"Organization/6b8d3a71-ddb8-463b-87ac-3b902405fdbc"}},{"fullUrl":"https://madie.cms.gov/MeasureReport/86bc5ece-ad15-44ad-acbc-b589bb6392ac","resource":{"resourceType":"MeasureReport","id":"86bc5ece-ad15-44ad-acbc-b589bb6392ac","meta":{"profile":["http://hl7.org/fhir/us/cqfmeasures/StructureDefinition/test-case-cqfm"]},"contained":[{"resourceType":"Parameters","id":"3eee41d2-87c4-45d1-a317-d7996ce481ac-parameters","parameter":[{"name":"subject","valueString":"33a81232-f22d-446b-8911-824bf8211925"}]}],"extension":[{"url":"http://hl7.org/fhir/us/cqfmeasures/StructureDefinition/cqfm-inputParameters","valueReference":{"reference":"#3eee41d2-87c4-45d1-a317-d7996ce481ac-parameters"}},{"url":"http://hl7.org/fhir/us/cqfmeasures/StructureDefinition/cqfm-testCaseDescription","valueMarkdown":"Screened, Not at Risk, No Referral, Assessed, Moderate Malnutrition, Diagnosis, No Nutrition Care Plan"}],"modifierExtension":[{"url":"http://hl7.org/fhir/us/cqfmeasures/StructureDefinition/cqfm-isTestCase","valueBoolean":true}],"status":"complete","type":"individual","measure":"https://madie.cms.gov/Measure/GlobalMalnutritionCompositeFHIR","period":{"start":"2026-01-01","end":"2026-12-31"},"group":[{"population":[{"code":{"coding":[{"system":"http://terminology.hl7.org/CodeSystem/measure-population","code":"initial-population","display":"Initial Population"}]},"count":1},{"code":{"coding":[{"system":"http://terminology.hl7.org/CodeSystem/measure-population","code":"measure-population","display":"Measure Population"}]},"count":1},{"code":{"coding":[{"system":"http://terminology.hl7.org/CodeSystem/measure-population","code":"measure-population-observation","display":"Measure Population Observation"}]},"count":1}]},{"population":[{"code":{"coding":[{"system":"http://terminology.hl7.org/CodeSystem/measure-population","code":"initial-population","display":"Initial Population"}]},"count":1},{"code":{"coding":[{"system":"http://terminology.hl7.org/CodeSystem/measure-population","code":"measure-population","display":"Measure Population"}]},"count":1},{"code":{"coding":[{"system":"http://terminology.hl7.org/CodeSystem/measure-population","code":"measure-population-observation","display":"Measure Population Observation"}]},"count":0}]},{"population":[{"code":{"coding":[{"system":"http://terminology.hl7.org/CodeSystem/measure-population","code":"initial-population","display":"Initial Population"}]},"count":1},{"code":{"coding":[{"system":"http://terminology.hl7.org/CodeSystem/measure-population","code":"measure-population","display":"Measure Population"}]},"count":1},{"code":{"coding":[{"system":"http://terminology.hl7.org/CodeSystem/measure-population","code":"measure-population-observation","display":"Measure Population Observation"}]},"count":0}]},{"population":[{"code":{"coding":[{"system":"http://terminology.hl7.org/CodeSystem/measure-population","code":"initial-population","display":"Initial Population"}]},"count":1},{"code":{"coding":[{"system":"http://terminology.hl7.org/CodeSystem/measure-population","code":"measure-population","display":"Measure Population"}]},"count":1},{"code":{"coding":[{"system":"http://terminology.hl7.org/CodeSystem/measure-population","code":"measure-population-observation","display":"Measure Population Observation"}]},"count":0}]},{"population":[{"code":{"coding":[{"system":"http://terminology.hl7.org/CodeSystem/measure-population","code":"initial-population","display":"Initial Population"}]},"count":1},{"code":{"coding":[{"system":"http://terminology.hl7.org/CodeSystem/measure-population","code":"measure-population","display":"Measure Population"}]},"count":1},{"code":{"coding":[{"system":"http://terminology.hl7.org/CodeSystem/measure-population","code":"measure-population-observation","display":"Measure Population Observation"}]},"count":1}]},{"population":[{"code":{"coding":[{"system":"http://terminology.hl7.org/CodeSystem/measure-population","code":"initial-population","display":"Initial Population"}]},"count":1},{"code":{"coding":[{"system":"http://terminology.hl7.org/CodeSystem/measure-population","code":"measure-population","display":"Measure Population"}]},"count":1},{"code":{"coding":[{"system":"http://terminology.hl7.org/CodeSystem/measure-population","code":"measure-population-observation","display":"Measure Population Observation"}]},"count":100}]}],"evaluatedResource":[{"reference":"Patient/33a81232-f22d-446b-8911-824bf8211925"},{"reference":"Encounter/53d46da5-6bb1-461b-a545-4b99a257d4dd"},{"reference":"Condition/a1006f40-7601-4f69-bbf0-9a8c4fe99a93"},{"reference":"Observation/e5c1aeab-e9b9-460f-bcc9-a3f49e7f06ae"},{"reference":"Observation/bdcd2bc6-7631-4977-bbef-222fe94eef92"},{"reference":"Coverage/8f649325-4fa1-4a4f-9c97-1f54b66076f4"},{"reference":"Organization/6b8d3a71-ddb8-463b-87ac-3b902405fdbc"}]},"request":{"method":"PUT","url":"MeasureReport/86bc5ece-ad15-44ad-acbc-b589bb6392ac"}}]}