{"resourceType":"Bundle","id":"tests-cd845443-6fc6-4118-8279-94774a5b76c7-bundle","type":"transaction","entry":[{"fullUrl":"https://madie.cms.gov/Patient/cd845443-6fc6-4118-8279-94774a5b76c7","resource":{"resourceType":"Patient","id":"cd845443-6fc6-4118-8279-94774a5b76c7","meta":{"profile":["http://hl7.org/fhir/us/qicore/StructureDefinition/qicore-patient"]},"text":{"status":"generated","div":"<div xmlns=\"http://www.w3.org/1999/xhtml\"><div class=\"hapiHeaderText\">2ScreNotatriAtriRefAsseModNodxNoCp, , <b> </b></div><table class=\"hapiPropertyTable\"><tbody><tr><td>Identifier</td><td>2ScreNotatriAtriRefAsseModNodxNoCp</td></tr><tr><td>Date of birth</td><td><span>14 May 1950</span></td></tr></tbody></table></div>"},"extension":[{"url":"http://hl7.org/fhir/us/core/StructureDefinition/us-core-race","extension":[{"url":"ombCategory","valueCoding":{"system":"urn:oid:2.16.840.1.113883.6.238","code":"2076-8","display":"Native Hawaiian or Other Pacific Islander","userSelected":true}},{"url":"text","valueString":"Native Hawaiian or Other Pacific Islander"}]},{"url":"http://hl7.org/fhir/us/core/StructureDefinition/us-core-ethnicity","extension":[{"url":"ombCategory","valueCoding":{"system":"urn:oid:2.16.840.1.113883.6.238","code":"2186-5","display":"Not Hispanic or Latino","userSelected":true}},{"url":"text","valueString":"Not Hispanic or Latino"}]}],"identifier":[{"type":{"coding":[{"system":"http://terminology.hl7.org/CodeSystem/v2-0203","code":"MR"}]},"system":"https://madie.cms.gov/","value":"2ScreNotatriAtriRefAsseModNodxNoCp"}],"active":true,"name":[{"use":"usual","text":"2ScreNotatriAtriRefAsseModNodxNoCp","family":"OCCURPass4","given":["2ScreNotatriAtriRefAsseModNodxNoCpOCCURPass4"]}],"gender":"male","birthDate":"1953-01-01","address":[{"text":"2ScreNotatriAtriRefAsseModNodxNoCp, Screened Not at risk Assessed Severely Malnourished Diagnosed Care Plan, ID=2ScreNotatriAtriRefAsseModNodxNoCp, DOB: 14 May 1950"}]},"request":{"method":"PUT","url":"Patient/cd845443-6fc6-4118-8279-94774a5b76c7"}},{"fullUrl":"https://madie.cms.gov/Encounter/77667d15-f5a0-4f77-94a1-eb8f5b326004","resource":{"resourceType":"Encounter","id":"77667d15-f5a0-4f77-94a1-eb8f5b326004","meta":{"profile":["http://hl7.org/fhir/us/qicore/StructureDefinition/qicore-encounter"]},"status":"finished","class":{"system":"http://terminology.hl7.org/CodeSystem/v3-ActCode","code":"IMP","display":"inpatient encounter"},"type":[{"coding":[{"system":"http://snomed.info/sct","code":"183452005"}]}],"subject":{"reference":"Patient/cd845443-6fc6-4118-8279-94774a5b76c7"},"period":{"start":"2026-02-01T08:00:00.000Z","end":"2026-02-07T08:15:00.000Z"}},"request":{"method":"PUT","url":"Encounter/77667d15-f5a0-4f77-94a1-eb8f5b326004"}},{"fullUrl":"https://madie.cms.gov/Observation/0604a3f1-f90c-45d4-ac4e-ac36d81af538","resource":{"resourceType":"Observation","id":"0604a3f1-f90c-45d4-ac4e-ac36d81af538","meta":{"profile":["http://hl7.org/fhir/us/qicore/StructureDefinition/qicore-observation"]},"status":"final","category":[{"coding":[{"system":"http://terminology.hl7.org/CodeSystem/observation-category","code":"survey","display":"Survey"}]}],"code":{"coding":[{"system":"http://loinc.org","code":"98968-1","display":"Initial screening NRS_2002","userSelected":true}]},"subject":{"reference":"Patient/cd845443-6fc6-4118-8279-94774a5b76c7"},"effectiveDateTime":"2026-02-01T09:00:00.000+00:00","valueCodeableConcept":{"coding":[{"system":"http://loinc.org","code":"LA33699-2","display":"Not at risk for malnutrition","userSelected":true}]}},"request":{"method":"PUT","url":"Observation/0604a3f1-f90c-45d4-ac4e-ac36d81af538"}},{"fullUrl":"https://madie.cms.gov/Observation/57d08f75-55d6-4ff2-b958-d7fdfe453992","resource":{"resourceType":"Observation","id":"57d08f75-55d6-4ff2-b958-d7fdfe453992","meta":{"profile":["http://hl7.org/fhir/us/qicore/StructureDefinition/qicore-observation"]},"status":"final","category":[{"coding":[{"system":"http://terminology.hl7.org/CodeSystem/observation-category","code":"survey","display":"Survey"}]}],"code":{"coding":[{"system":"http://loinc.org","code":"98968-1","display":"Initial screening NRS_2002","userSelected":true}]},"subject":{"reference":"Patient/cd845443-6fc6-4118-8279-94774a5b76c7"},"effectiveDateTime":"2026-02-01T09:00:00.000+00:00","valueCodeableConcept":{"coding":[{"system":"http://snomed.info/sct","code":"129689002","display":"At risk for nutritional problem(finding)","userSelected":true}]}},"request":{"method":"PUT","url":"Observation/57d08f75-55d6-4ff2-b958-d7fdfe453992"}},{"fullUrl":"https://madie.cms.gov/Observation/c18a2508-6ddb-48e9-a668-6922f4bc87fd","resource":{"resourceType":"Observation","id":"c18a2508-6ddb-48e9-a668-6922f4bc87fd","meta":{"profile":["http://hl7.org/fhir/us/qicore/StructureDefinition/qicore-observation"]},"status":"final","category":[{"coding":[{"system":"http://terminology.hl7.org/CodeSystem/observation-category","code":"survey","display":"Survey"}]}],"code":{"coding":[{"system":"http://loinc.org","code":"75282-4","display":"Nutrition assessment panel","userSelected":true}]},"subject":{"reference":"Patient/cd845443-6fc6-4118-8279-94774a5b76c7"},"effectiveDateTime":"2026-02-01T10:00:00.000+00:00","valueCodeableConcept":{"coding":[{"system":"http://snomed.info/sct","code":"70241007","display":"Nutritional deficiency disorder (disorder)","userSelected":true}]}},"request":{"method":"PUT","url":"Observation/c18a2508-6ddb-48e9-a668-6922f4bc87fd"}},{"fullUrl":"https://madie.cms.gov/Procedure/f51264b7-8452-4fa3-ad55-53d03c74cfe7","resource":{"resourceType":"Procedure","id":"f51264b7-8452-4fa3-ad55-53d03c74cfe7","meta":{"profile":["http://hl7.org/fhir/us/qicore/StructureDefinition/qicore-procedure"]},"extension":[{"url":"http://hl7.org/fhir/us/qicore/StructureDefinition/qicore-recorded","valueDateTime":"2026-02-01T11:30:00.000Z"}],"status":"completed","code":{"coding":[{"system":"http://snomed.info/sct","code":"306165000","display":"Referral to hospital-based dietetics service (procedure)"}],"text":"Referral to hospital-based dietetics service (procedure)"},"subject":{"reference":"Patient/cd845443-6fc6-4118-8279-94774a5b76c7"},"encounter":{"reference":"Encounter/2ScreNotatriAtriRefAsseModNodxNoCpOCCURPass4"},"performedPeriod":{"start":"2026-02-01T11:30:00.000Z","end":"2026-02-07T08:15:00.000Z"}},"request":{"method":"PUT","url":"Procedure/f51264b7-8452-4fa3-ad55-53d03c74cfe7"}},{"fullUrl":"https://madie.cms.gov/Coverage/fecb8461-8d51-4f54-8584-084a1d53a126","resource":{"resourceType":"Coverage","id":"fecb8461-8d51-4f54-8584-084a1d53a126","meta":{"profile":["http://hl7.org/fhir/us/qicore/StructureDefinition/qicore-coverage"]},"status":"active","type":{"coding":[{"system":"https://nahdo.org/sopt","version":"9.2","code":"11","display":"Medicare Managed Care (Includes Medicare Advantage Plans)"}]},"beneficiary":{"reference":"Patient/cd845443-6fc6-4118-8279-94774a5b76c7"},"period":{"start":"2025-10-01T00:00:00+00:00"},"payor":[{"reference":"Organization/58d9e256-cc29-4262-9841-61436f370c5a"}]},"request":{"method":"PUT","url":"Coverage/fecb8461-8d51-4f54-8584-084a1d53a126"}},{"fullUrl":"https://madie.cms.gov/Organization/58d9e256-cc29-4262-9841-61436f370c5a","resource":{"resourceType":"Organization","id":"58d9e256-cc29-4262-9841-61436f370c5a","meta":{"profile":["http://hl7.org/fhir/us/qicore/StructureDefinition/qicore-organization"]},"identifier":[{"use":"temp","system":"urn:oid:2.16.840.1.113883.4.4","value":"21-3259825"}],"active":true,"type":[{"coding":[{"system":"http://terminology.hl7.org/CodeSystem/organization-type","code":"pay","display":"Payer"}]}],"name":"Blue Cross Blue Shield of Texas","telecom":[{"system":"phone","value":"(+1) 972-766-6900"}],"address":[{"use":"billing","type":"postal","line":["P.O. Box 660044"],"city":"Dallas","state":"TX","postalCode":"75266-0044","country":"USA"}]},"request":{"method":"PUT","url":"Organization/58d9e256-cc29-4262-9841-61436f370c5a"}},{"fullUrl":"https://madie.cms.gov/MeasureReport/e35f5fa6-5ad3-484c-a84e-17918bb1ca81","resource":{"resourceType":"MeasureReport","id":"e35f5fa6-5ad3-484c-a84e-17918bb1ca81","meta":{"profile":["http://hl7.org/fhir/us/cqfmeasures/StructureDefinition/test-case-cqfm"]},"contained":[{"resourceType":"Parameters","id":"78d482ed-97bc-426e-a401-e061fda1dc17-parameters","parameter":[{"name":"subject","valueString":"cd845443-6fc6-4118-8279-94774a5b76c7"}]}],"extension":[{"url":"http://hl7.org/fhir/us/cqfmeasures/StructureDefinition/cqfm-inputParameters","valueReference":{"reference":"#78d482ed-97bc-426e-a401-e061fda1dc17-parameters"}},{"url":"http://hl7.org/fhir/us/cqfmeasures/StructureDefinition/cqfm-testCaseDescription","valueMarkdown":"Screened, Not at Risk, At Risk, Referral, Assessed, Moderately Malnourished, No Diagnosis, No Nutrition Care Plan"}],"modifierExtension":[{"url":"http://hl7.org/fhir/us/cqfmeasures/StructureDefinition/cqfm-isTestCase","valueBoolean":true}],"status":"complete","type":"individual","measure":"https://madie.cms.gov/Measure/GlobalMalnutritionCompositeFHIR","period":{"start":"2026-01-01","end":"2026-12-31"},"group":[{"population":[{"code":{"coding":[{"system":"http://terminology.hl7.org/CodeSystem/measure-population","code":"initial-population","display":"Initial Population"}]},"count":1},{"code":{"coding":[{"system":"http://terminology.hl7.org/CodeSystem/measure-population","code":"measure-population","display":"Measure Population"}]},"count":1},{"code":{"coding":[{"system":"http://terminology.hl7.org/CodeSystem/measure-population","code":"measure-population-observation","display":"Measure Population Observation"}]},"count":1}]},{"population":[{"code":{"coding":[{"system":"http://terminology.hl7.org/CodeSystem/measure-population","code":"initial-population","display":"Initial Population"}]},"count":1},{"code":{"coding":[{"system":"http://terminology.hl7.org/CodeSystem/measure-population","code":"measure-population","display":"Measure Population"}]},"count":1},{"code":{"coding":[{"system":"http://terminology.hl7.org/CodeSystem/measure-population","code":"measure-population-observation","display":"Measure Population Observation"}]},"count":1}]},{"population":[{"code":{"coding":[{"system":"http://terminology.hl7.org/CodeSystem/measure-population","code":"initial-population","display":"Initial Population"}]},"count":1},{"code":{"coding":[{"system":"http://terminology.hl7.org/CodeSystem/measure-population","code":"measure-population","display":"Measure Population"}]},"count":1},{"code":{"coding":[{"system":"http://terminology.hl7.org/CodeSystem/measure-population","code":"measure-population-observation","display":"Measure Population Observation"}]},"count":0}]},{"population":[{"code":{"coding":[{"system":"http://terminology.hl7.org/CodeSystem/measure-population","code":"initial-population","display":"Initial Population"}]},"count":1},{"code":{"coding":[{"system":"http://terminology.hl7.org/CodeSystem/measure-population","code":"measure-population","display":"Measure Population"}]},"count":1},{"code":{"coding":[{"system":"http://terminology.hl7.org/CodeSystem/measure-population","code":"measure-population-observation","display":"Measure Population Observation"}]},"count":0}]},{"population":[{"code":{"coding":[{"system":"http://terminology.hl7.org/CodeSystem/measure-population","code":"initial-population","display":"Initial Population"}]},"count":1},{"code":{"coding":[{"system":"http://terminology.hl7.org/CodeSystem/measure-population","code":"measure-population","display":"Measure Population"}]},"count":1},{"code":{"coding":[{"system":"http://terminology.hl7.org/CodeSystem/measure-population","code":"measure-population-observation","display":"Measure Population Observation"}]},"count":2}]},{"population":[{"code":{"coding":[{"system":"http://terminology.hl7.org/CodeSystem/measure-population","code":"initial-population","display":"Initial Population"}]},"count":1},{"code":{"coding":[{"system":"http://terminology.hl7.org/CodeSystem/measure-population","code":"measure-population","display":"Measure Population"}]},"count":1},{"code":{"coding":[{"system":"http://terminology.hl7.org/CodeSystem/measure-population","code":"measure-population-observation","display":"Measure Population Observation"}]},"count":50}]}],"evaluatedResource":[{"reference":"Patient/cd845443-6fc6-4118-8279-94774a5b76c7"},{"reference":"Encounter/77667d15-f5a0-4f77-94a1-eb8f5b326004"},{"reference":"Observation/0604a3f1-f90c-45d4-ac4e-ac36d81af538"},{"reference":"Observation/57d08f75-55d6-4ff2-b958-d7fdfe453992"},{"reference":"Observation/c18a2508-6ddb-48e9-a668-6922f4bc87fd"},{"reference":"Procedure/f51264b7-8452-4fa3-ad55-53d03c74cfe7"},{"reference":"Coverage/fecb8461-8d51-4f54-8584-084a1d53a126"},{"reference":"Organization/58d9e256-cc29-4262-9841-61436f370c5a"}]},"request":{"method":"PUT","url":"MeasureReport/e35f5fa6-5ad3-484c-a84e-17918bb1ca81"}}]}