{"resourceType":"Bundle","id":"tests-6a6d13bf-394c-4a87-ac40-c603ded48daa-bundle","type":"transaction","entry":[{"fullUrl":"https://madie.cms.gov/Patient/6a6d13bf-394c-4a87-ac40-c603ded48daa","resource":{"resourceType":"Patient","id":"6a6d13bf-394c-4a87-ac40-c603ded48daa","meta":{"profile":["http://hl7.org/fhir/us/qicore/StructureDefinition/qicore-patient"]},"text":{"status":"generated","div":"<div xmlns=\"http://www.w3.org/1999/xhtml\"><div class=\"hapiHeaderText\">ScreAtriNorefAsseModDxCp2, , <b> </b></div><table class=\"hapiPropertyTable\"><tbody><tr><td>Identifier</td><td>ScreAtriNorefAsseModDxCp2</td></tr><tr><td>Date of birth</td><td><span>14 May 1950</span></td></tr></tbody></table></div>"},"extension":[{"url":"http://hl7.org/fhir/us/core/StructureDefinition/us-core-race","extension":[{"url":"ombCategory","valueCoding":{"system":"urn:oid:2.16.840.1.113883.6.238","code":"2106-3","display":"White","userSelected":true}},{"url":"text","valueString":"White"}]},{"url":"http://hl7.org/fhir/us/core/StructureDefinition/us-core-ethnicity","extension":[{"url":"ombCategory","valueCoding":{"system":"urn:oid:2.16.840.1.113883.6.238","code":"2186-5","display":"Not Hispanic or Latino","userSelected":true}},{"url":"text","valueString":"Not Hispanic or Latino"}]}],"identifier":[{"type":{"coding":[{"system":"http://terminology.hl7.org/CodeSystem/v2-0203","code":"MR"}]},"system":"https://madie.cms.gov/","value":"ScreAtriNorefAsseModDxCp2"}],"active":true,"name":[{"use":"usual","text":"ScreAtriNorefAsseModDxCp2","family":"DENOMPass4","given":["ScreAtriNorefAsseModDxCp2DENOMPass4"]}],"gender":"male","birthDate":"1950-05-14","address":[{"text":"ScreAtriNorefAsseModDxCp2, Screened Not at risk Assessed Severely Malnourished Diagnosed Care Plan, ID=ScreAtriNorefAsseModDxCp2, DOB: 14 May 1950"}]},"request":{"method":"PUT","url":"Patient/6a6d13bf-394c-4a87-ac40-c603ded48daa"}},{"fullUrl":"https://madie.cms.gov/Encounter/f4cb312a-fb4c-4287-96b2-09abb90e9069","resource":{"resourceType":"Encounter","id":"f4cb312a-fb4c-4287-96b2-09abb90e9069","meta":{"profile":["http://hl7.org/fhir/us/qicore/StructureDefinition/qicore-encounter"]},"status":"finished","class":{"system":"http://terminology.hl7.org/CodeSystem/v3-ActCode","code":"IMP","display":"inpatient encounter"},"type":[{"coding":[{"system":"http://snomed.info/sct","code":"183452005"}]}],"subject":{"reference":"Patient/6a6d13bf-394c-4a87-ac40-c603ded48daa"},"period":{"start":"2026-02-01T08:00:00.000Z","end":"2026-02-07T08:15:00.000Z"}},"request":{"method":"PUT","url":"Encounter/f4cb312a-fb4c-4287-96b2-09abb90e9069"}},{"fullUrl":"https://madie.cms.gov/Condition/05eaf43b-0a67-4bc9-8157-18de810e57d1","resource":{"resourceType":"Condition","id":"05eaf43b-0a67-4bc9-8157-18de810e57d1","meta":{"profile":["http://hl7.org/fhir/us/qicore/StructureDefinition/qicore-condition"]},"clinicalStatus":{"coding":[{"system":"http://terminology.hl7.org/CodeSystem/condition-clinical","code":"active","display":"Active","userSelected":true}]},"verificationStatus":{"coding":[{"system":"http://terminology.hl7.org/CodeSystem/condition-ver-status","code":"confirmed","display":"Confirmed","userSelected":true}]},"category":[{"coding":[{"system":"http://terminology.hl7.org/CodeSystem/condition-category","code":"encounter-diagnosis","display":"Encounter Diagnosis","userSelected":true}]}],"code":{"coding":[{"system":"http://hl7.org/fhir/sid/icd-10-cm","code":"E44.0","display":"Moderate protein-calorie malnutrition","userSelected":true}]},"subject":{"reference":"Patient/6a6d13bf-394c-4a87-ac40-c603ded48daa"},"onsetPeriod":{"start":"2026-02-01T08:00:00.000+00:00"},"recordedDate":"2026-02-01T11:00:00.000+00:00"},"request":{"method":"PUT","url":"Condition/05eaf43b-0a67-4bc9-8157-18de810e57d1"}},{"fullUrl":"https://madie.cms.gov/Observation/98c54d01-6188-4a07-9793-b2c16a887013","resource":{"resourceType":"Observation","id":"98c54d01-6188-4a07-9793-b2c16a887013","meta":{"profile":["http://hl7.org/fhir/us/qicore/StructureDefinition/qicore-observation"]},"status":"final","category":[{"coding":[{"system":"http://terminology.hl7.org/CodeSystem/observation-category","code":"survey","display":"Survey"}]}],"code":{"coding":[{"system":"http://loinc.org","code":"98972-3","display":"Final screening NRS_2002","userSelected":true}]},"subject":{"reference":"Patient/6a6d13bf-394c-4a87-ac40-c603ded48daa"},"effectiveDateTime":"2026-02-01T09:00:00.000+00:00","valueCodeableConcept":{"coding":[{"system":"http://snomed.info/sct","code":"704361005","display":"At risk of deficient food intake (finding)","userSelected":true}]}},"request":{"method":"PUT","url":"Observation/98c54d01-6188-4a07-9793-b2c16a887013"}},{"fullUrl":"https://madie.cms.gov/Observation/95ffd3d2-8b3d-4699-b0c7-ff5d07a2a67e","resource":{"resourceType":"Observation","id":"95ffd3d2-8b3d-4699-b0c7-ff5d07a2a67e","meta":{"profile":["http://hl7.org/fhir/us/qicore/StructureDefinition/qicore-observation"]},"status":"final","category":[{"coding":[{"system":"http://terminology.hl7.org/CodeSystem/observation-category","code":"survey","display":"Survey"}]}],"code":{"coding":[{"system":"http://loinc.org","code":"75303-8","display":"Nutrition assessment narrative","userSelected":true}]},"subject":{"reference":"Patient/6a6d13bf-394c-4a87-ac40-c603ded48daa"},"effectiveDateTime":"2026-02-01T10:00:00.000+00:00","valueCodeableConcept":{"coding":[{"system":"http://snomed.info/sct","code":"190606006","display":"Moderate protein energy malnutrition (finding)","userSelected":true}]}},"request":{"method":"PUT","url":"Observation/95ffd3d2-8b3d-4699-b0c7-ff5d07a2a67e"}},{"fullUrl":"https://madie.cms.gov/Procedure/b6947fa7-3fc6-4da0-903d-919a39d68677","resource":{"resourceType":"Procedure","id":"b6947fa7-3fc6-4da0-903d-919a39d68677","meta":{"profile":["http://hl7.org/fhir/us/qicore/StructureDefinition/qicore-procedure"]},"extension":[{"url":"http://hl7.org/fhir/us/qicore/StructureDefinition/qicore-recorded","valueDateTime":"2025-02-02T11:30:00.000Z"}],"status":"completed","code":{"coding":[{"system":"http://snomed.info/sct","code":"386372009","display":"Development of a nutrition care plan (procedure)"}],"text":"Development of a nutrition care plan (procedure)"},"subject":{"reference":"Patient/6a6d13bf-394c-4a87-ac40-c603ded48daa"},"encounter":{"reference":"Encounter/ScreAtriNorefAsseModDxCp2DENOMPass4"},"performedPeriod":{"start":"2026-02-01T11:30:00.000Z","end":"2026-02-07T08:15:00.000Z"}},"request":{"method":"PUT","url":"Procedure/b6947fa7-3fc6-4da0-903d-919a39d68677"}},{"fullUrl":"https://madie.cms.gov/Coverage/a339ca39-584f-4e58-a932-ef9a8a9f9892","resource":{"resourceType":"Coverage","id":"a339ca39-584f-4e58-a932-ef9a8a9f9892","meta":{"profile":["http://hl7.org/fhir/us/qicore/StructureDefinition/qicore-coverage"]},"status":"active","type":{"coding":[{"system":"https://nahdo.org/sopt","version":"9.2","code":"11","display":"Medicare Managed Care (Includes Medicare Advantage Plans)"}]},"beneficiary":{"reference":"Patient/6a6d13bf-394c-4a87-ac40-c603ded48daa"},"period":{"start":"2024-10-01T00:00:00+00:00"},"payor":[{"reference":"Organization/d2136be1-95bf-4231-9f49-fb7d870b8c84"}]},"request":{"method":"PUT","url":"Coverage/a339ca39-584f-4e58-a932-ef9a8a9f9892"}},{"fullUrl":"https://madie.cms.gov/Organization/d2136be1-95bf-4231-9f49-fb7d870b8c84","resource":{"resourceType":"Organization","id":"d2136be1-95bf-4231-9f49-fb7d870b8c84","meta":{"profile":["http://hl7.org/fhir/us/qicore/StructureDefinition/qicore-organization"]},"identifier":[{"use":"temp","system":"urn:oid:2.16.840.1.113883.4.4","value":"21-3259825"}],"active":true,"type":[{"coding":[{"system":"http://terminology.hl7.org/CodeSystem/organization-type","code":"pay","display":"Payer"}]}],"name":"Blue Cross Blue Shield of Texas","telecom":[{"system":"phone","value":"(+1) 972-766-6900"}],"address":[{"use":"billing","type":"postal","line":["P.O. Box 660044"],"city":"Dallas","state":"TX","postalCode":"75266-0044","country":"USA"}]},"request":{"method":"PUT","url":"Organization/d2136be1-95bf-4231-9f49-fb7d870b8c84"}},{"fullUrl":"https://madie.cms.gov/MeasureReport/0b8dbe62-7030-440f-96bf-3d6611f665b2","resource":{"resourceType":"MeasureReport","id":"0b8dbe62-7030-440f-96bf-3d6611f665b2","meta":{"profile":["http://hl7.org/fhir/us/cqfmeasures/StructureDefinition/test-case-cqfm"]},"contained":[{"resourceType":"Parameters","id":"c871d0bf-29d7-43de-8099-53805f118cf7-parameters","parameter":[{"name":"subject","valueString":"6a6d13bf-394c-4a87-ac40-c603ded48daa"}]}],"extension":[{"url":"http://hl7.org/fhir/us/cqfmeasures/StructureDefinition/cqfm-inputParameters","valueReference":{"reference":"#c871d0bf-29d7-43de-8099-53805f118cf7-parameters"}},{"url":"http://hl7.org/fhir/us/cqfmeasures/StructureDefinition/cqfm-testCaseDescription","valueMarkdown":"Screened, At Risk, No Referral, Assessed, Moderate Malnutrition, Diagnosis, Nutrition Care Plan"}],"modifierExtension":[{"url":"http://hl7.org/fhir/us/cqfmeasures/StructureDefinition/cqfm-isTestCase","valueBoolean":true}],"status":"complete","type":"individual","measure":"https://madie.cms.gov/Measure/GlobalMalnutritionCompositeFHIR","period":{"start":"2026-01-01","end":"2026-12-31"},"group":[{"population":[{"code":{"coding":[{"system":"http://terminology.hl7.org/CodeSystem/measure-population","code":"initial-population","display":"Initial Population"}]},"count":1},{"code":{"coding":[{"system":"http://terminology.hl7.org/CodeSystem/measure-population","code":"measure-population","display":"Measure Population"}]},"count":1},{"code":{"coding":[{"system":"http://terminology.hl7.org/CodeSystem/measure-population","code":"measure-population-observation","display":"Measure Population Observation"}]},"count":1}]},{"population":[{"code":{"coding":[{"system":"http://terminology.hl7.org/CodeSystem/measure-population","code":"initial-population","display":"Initial Population"}]},"count":1},{"code":{"coding":[{"system":"http://terminology.hl7.org/CodeSystem/measure-population","code":"measure-population","display":"Measure Population"}]},"count":1},{"code":{"coding":[{"system":"http://terminology.hl7.org/CodeSystem/measure-population","code":"measure-population-observation","display":"Measure Population Observation"}]},"count":1}]},{"population":[{"code":{"coding":[{"system":"http://terminology.hl7.org/CodeSystem/measure-population","code":"initial-population","display":"Initial Population"}]},"count":1},{"code":{"coding":[{"system":"http://terminology.hl7.org/CodeSystem/measure-population","code":"measure-population","display":"Measure Population"}]},"count":1},{"code":{"coding":[{"system":"http://terminology.hl7.org/CodeSystem/measure-population","code":"measure-population-observation","display":"Measure Population Observation"}]},"count":1}]},{"population":[{"code":{"coding":[{"system":"http://terminology.hl7.org/CodeSystem/measure-population","code":"initial-population","display":"Initial Population"}]},"count":1},{"code":{"coding":[{"system":"http://terminology.hl7.org/CodeSystem/measure-population","code":"measure-population","display":"Measure Population"}]},"count":1},{"code":{"coding":[{"system":"http://terminology.hl7.org/CodeSystem/measure-population","code":"measure-population-observation","display":"Measure Population Observation"}]},"count":1}]},{"population":[{"code":{"coding":[{"system":"http://terminology.hl7.org/CodeSystem/measure-population","code":"initial-population","display":"Initial Population"}]},"count":1},{"code":{"coding":[{"system":"http://terminology.hl7.org/CodeSystem/measure-population","code":"measure-population","display":"Measure Population"}]},"count":1},{"code":{"coding":[{"system":"http://terminology.hl7.org/CodeSystem/measure-population","code":"measure-population-observation","display":"Measure Population Observation"}]},"count":4}]},{"population":[{"code":{"coding":[{"system":"http://terminology.hl7.org/CodeSystem/measure-population","code":"initial-population","display":"Initial Population"}]},"count":1},{"code":{"coding":[{"system":"http://terminology.hl7.org/CodeSystem/measure-population","code":"measure-population","display":"Measure Population"}]},"count":1},{"code":{"coding":[{"system":"http://terminology.hl7.org/CodeSystem/measure-population","code":"measure-population-observation","display":"Measure Population Observation"}]},"count":100}]}],"evaluatedResource":[{"reference":"Patient/6a6d13bf-394c-4a87-ac40-c603ded48daa"},{"reference":"Encounter/f4cb312a-fb4c-4287-96b2-09abb90e9069"},{"reference":"Condition/05eaf43b-0a67-4bc9-8157-18de810e57d1"},{"reference":"Observation/98c54d01-6188-4a07-9793-b2c16a887013"},{"reference":"Observation/95ffd3d2-8b3d-4699-b0c7-ff5d07a2a67e"},{"reference":"Procedure/b6947fa7-3fc6-4da0-903d-919a39d68677"},{"reference":"Coverage/a339ca39-584f-4e58-a932-ef9a8a9f9892"},{"reference":"Organization/d2136be1-95bf-4231-9f49-fb7d870b8c84"}]},"request":{"method":"PUT","url":"MeasureReport/0b8dbe62-7030-440f-96bf-3d6611f665b2"}}]}