{
  "resourceType": "Bundle",
  "id": "LOS23Hours",
  "type": "transaction",
  "entry": [
    {
      "fullUrl": "https://madie.cms.gov/Patient/991104cb-e5c2-4414-8db9-33595aa725ad",
      "resource": {
        "resourceType": "Patient",
        "id": "991104cb-e5c2-4414-8db9-33595aa725ad",
        "meta": {
          "profile": [
            "http://hl7.org/fhir/us/qicore/StructureDefinition/qicore-patient"
          ]
        },
        "text": {
          "status": "generated",
          "div": "<div xmlns=\"http://www.w3.org/1999/xhtml\"><div class=\"hapiHeaderText\">LOS23Hours, Screened Not at risk Assessed Severely Malnourished Diagnosed Care Plan, <b>mo1111d4p100 </b></div><table class=\"hapiPropertyTable\"><tbody><tr><td>Identifier</td><td>LOS23Hours</td></tr><tr><td>Date of birth</td><td><span>14 May 1950</span></td></tr></tbody></table></div>"
        },
        "extension": [
          {
            "url": "http://hl7.org/fhir/us/core/StructureDefinition/us-core-race",
            "extension": [
              {
                "url": "ombCategory",
                "valueCoding": {
                  "system": "urn:oid:2.16.840.1.113883.6.238",
                  "code": "2106-3",
                  "display": "White",
                  "userSelected": true
                }
              },
              {
                "url": "text",
                "valueString": "White"
              }
            ]
          },
          {
            "url": "http://hl7.org/fhir/us/core/StructureDefinition/us-core-ethnicity",
            "extension": [
              {
                "url": "ombCategory",
                "valueCoding": {
                  "system": "urn:oid:2.16.840.1.113883.6.238",
                  "code": "2186-5",
                  "display": "Not Hispanic or Latino",
                  "userSelected": true
                }
              },
              {
                "url": "text",
                "valueString": "Not Hispanic or Latino"
              }
            ]
          }
        ],
        "identifier": [
          {
            "type": {
              "coding": [
                {
                  "system": "http://terminology.hl7.org/CodeSystem/v2-0203",
                  "code": "MR"
                }
              ]
            },
            "system": "https://madie.cms.gov/",
            "value": "LOS23Hours"
          }
        ],
        "active": true,
        "name": [
          {
            "use": "usual",
            "text": "LOS23Hours",
            "family": "IPPFAIL",
            "given": [
              "LOS23HoursIPPFAIL"
            ]
          }
        ],
        "gender": "male",
        "birthDate": "1950-05-14",
        "address": [
          {
            "text": "LOS23Hours, Screened Not at risk Assessed Severely Malnourished Diagnosed Care Plan, ID=LOS23Hours, DOB: 14 May 1950"
          }
        ]
      },
      "request": {
        "method": "PUT",
        "url": "Patient/991104cb-e5c2-4414-8db9-33595aa725ad"
      }
    },
    {
      "fullUrl": "https://madie.cms.gov/Encounter/ed87968d-a434-4f30-90f0-4d11fd391ed7",
      "resource": {
        "resourceType": "Encounter",
        "id": "ed87968d-a434-4f30-90f0-4d11fd391ed7",
        "meta": {
          "profile": [
            "http://hl7.org/fhir/us/qicore/StructureDefinition/qicore-encounter"
          ]
        },
        "status": "finished",
        "class": {
          "system": "http://terminology.hl7.org/CodeSystem/v3-ActCode",
          "code": "IMP",
          "display": "inpatient encounter"
        },
        "type": [
          {
            "coding": [
              {
                "system": "http://snomed.info/sct",
                "code": "183452005"
              }
            ]
          }
        ],
        "subject": {
          "reference": "Patient/991104cb-e5c2-4414-8db9-33595aa725ad"
        },
        "period": {
          "start": "2026-02-01T08:00:00.000Z",
          "end": "2026-02-01T08:15:00.000Z"
        }
      },
      "request": {
        "method": "PUT",
        "url": "Encounter/ed87968d-a434-4f30-90f0-4d11fd391ed7"
      }
    },
    {
      "fullUrl": "https://madie.cms.gov/Condition/3f49fa18-a14b-4980-8467-37c47bdd4e35",
      "resource": {
        "resourceType": "Condition",
        "id": "3f49fa18-a14b-4980-8467-37c47bdd4e35",
        "meta": {
          "profile": [
            "http://hl7.org/fhir/us/qicore/StructureDefinition/qicore-condition"
          ]
        },
        "clinicalStatus": {
          "coding": [
            {
              "system": "http://terminology.hl7.org/CodeSystem/condition-clinical",
              "code": "active",
              "display": "Active",
              "userSelected": true
            }
          ]
        },
        "verificationStatus": {
          "coding": [
            {
              "system": "http://terminology.hl7.org/CodeSystem/condition-ver-status",
              "code": "confirmed",
              "display": "Confirmed",
              "userSelected": true
            }
          ]
        },
        "category": [
          {
            "coding": [
              {
                "system": "http://terminology.hl7.org/CodeSystem/condition-category",
                "code": "encounter-diagnosis",
                "display": "Encounter Diagnosis",
                "userSelected": true
              }
            ]
          }
        ],
        "code": {
          "coding": [
            {
              "system": "http://snomed.info/sct",
              "code": "190606006",
              "display": "Moderate protein energy malnutrition (disorder)",
              "userSelected": true
            }
          ]
        },
        "subject": {
          "reference": "Patient/991104cb-e5c2-4414-8db9-33595aa725ad"
        },
        "onsetPeriod": {
          "start": "2026-02-01T08:00:00.000+00:00"
        },
        "recordedDate": "2026-02-01T08:00:00.000+00:00"
      },
      "request": {
        "method": "PUT",
        "url": "Condition/3f49fa18-a14b-4980-8467-37c47bdd4e35"
      }
    },
    {
      "fullUrl": "https://madie.cms.gov/Observation/c45adb2f-1676-44b8-a200-af58eb2b1ead",
      "resource": {
        "resourceType": "Observation",
        "id": "c45adb2f-1676-44b8-a200-af58eb2b1ead",
        "meta": {
          "profile": [
            "http://hl7.org/fhir/us/qicore/StructureDefinition/qicore-observation"
          ]
        },
        "status": "final",
        "category": [
          {
            "coding": [
              {
                "system": "http://terminology.hl7.org/CodeSystem/observation-category",
                "code": "survey",
                "display": "Survey"
              }
            ]
          }
        ],
        "code": {
          "coding": [
            {
              "system": "http://loinc.org",
              "code": "98967-3",
              "display": "Nutritional Risk Screening 2002 panel",
              "userSelected": true
            }
          ]
        },
        "subject": {
          "reference": "Patient/991104cb-e5c2-4414-8db9-33595aa725ad"
        },
        "effectiveDateTime": "2026-02-01T09:00:00.000+00:00",
        "valueCodeableConcept": {
          "coding": [
            {
              "system": "http://snomed.info/sct",
              "code": "129689002",
              "display": "At risk for nutritional problem (finding)",
              "userSelected": true
            }
          ]
        }
      },
      "request": {
        "method": "PUT",
        "url": "Observation/c45adb2f-1676-44b8-a200-af58eb2b1ead"
      }
    },
    {
      "fullUrl": "https://madie.cms.gov/Observation/be14d55b-32d3-4a7f-a151-9be21ddd17d2",
      "resource": {
        "resourceType": "Observation",
        "id": "be14d55b-32d3-4a7f-a151-9be21ddd17d2",
        "meta": {
          "profile": [
            "http://hl7.org/fhir/us/qicore/StructureDefinition/qicore-observation"
          ]
        },
        "status": "final",
        "category": [
          {
            "coding": [
              {
                "system": "http://terminology.hl7.org/CodeSystem/observation-category",
                "code": "survey",
                "display": "Survey"
              }
            ]
          }
        ],
        "code": {
          "coding": [
            {
              "system": "http://loinc.org",
              "code": "75282-4",
              "display": "Nutrition assessment panel",
              "userSelected": true
            }
          ]
        },
        "subject": {
          "reference": "Patient/991104cb-e5c2-4414-8db9-33595aa725ad"
        },
        "effectiveDateTime": "2026-02-01T10:00:00.000+00:00",
        "valueCodeableConcept": {
          "coding": [
            {
              "system": "http://snomed.info/sct",
              "code": "102635008",
              "display": "Acute nutritional deficiency (finding)",
              "userSelected": true
            }
          ]
        }
      },
      "request": {
        "method": "PUT",
        "url": "Observation/be14d55b-32d3-4a7f-a151-9be21ddd17d2"
      }
    },
    {
      "fullUrl": "https://madie.cms.gov/Procedure/949ceb88-2248-48a7-b090-e1f2ff5166b4",
      "resource": {
        "resourceType": "Procedure",
        "id": "949ceb88-2248-48a7-b090-e1f2ff5166b4",
        "meta": {
          "profile": [
            "http://hl7.org/fhir/us/qicore/StructureDefinition/qicore-procedure"
          ]
        },
        "extension": [
          {
            "url": "http://hl7.org/fhir/us/qicore/StructureDefinition/qicore-recorded",
            "valueDateTime": "2025-02-01T08:30:00.000Z"
          }
        ],
        "status": "completed",
        "code": {
          "coding": [
            {
              "system": "http://snomed.info/sct",
              "code": "306165000",
              "display": "Referral to hospital-based dietetics service (procedure)"
            }
          ],
          "text": "Referral to hospital-based dietetics service (procedure)"
        },
        "subject": {
          "reference": "Patient/991104cb-e5c2-4414-8db9-33595aa725ad"
        },
        "encounter": {
          "reference": "Encounter/LOS23HoursIPPFAIL"
        },
        "performedPeriod": {
          "start": "2026-02-01T07:30:00.000Z",
          "end": "2026-02-01T08:15:00.000Z"
        }
      },
      "request": {
        "method": "PUT",
        "url": "Procedure/949ceb88-2248-48a7-b090-e1f2ff5166b4"
      }
    },
    {
      "fullUrl": "https://madie.cms.gov/Procedure/5dc98453-527c-4056-80e7-e66bd21f2e50",
      "resource": {
        "resourceType": "Procedure",
        "id": "5dc98453-527c-4056-80e7-e66bd21f2e50",
        "meta": {
          "profile": [
            "http://hl7.org/fhir/us/qicore/StructureDefinition/qicore-procedure"
          ]
        },
        "extension": [
          {
            "url": "http://hl7.org/fhir/us/qicore/StructureDefinition/qicore-recorded",
            "valueDateTime": "2025-02-01T11:30:00.000Z"
          }
        ],
        "status": "completed",
        "code": {
          "coding": [
            {
              "system": "http://snomed.info/sct",
              "code": "413315001",
              "display": "Nutrition/feeding management (regime/therapy)"
            }
          ],
          "text": "Nutrition/feeding management (regime/therapy)"
        },
        "subject": {
          "reference": "Patient/991104cb-e5c2-4414-8db9-33595aa725ad"
        },
        "encounter": {
          "reference": "Encounter/LOS23HoursIPPFAIL"
        },
        "performedPeriod": {
          "start": "2026-02-01T11:30:00.000Z",
          "end": "2026-02-07T08:15:00.000Z"
        }
      },
      "request": {
        "method": "PUT",
        "url": "Procedure/5dc98453-527c-4056-80e7-e66bd21f2e50"
      }
    },
    {
      "fullUrl": "https://madie.cms.gov/Coverage/ae229ff5-2fba-4f29-ac42-603c9ac26e37",
      "resource": {
        "resourceType": "Coverage",
        "id": "ae229ff5-2fba-4f29-ac42-603c9ac26e37",
        "meta": {
          "profile": [
            "http://hl7.org/fhir/us/qicore/StructureDefinition/qicore-coverage"
          ]
        },
        "status": "active",
        "type": {
          "coding": [
            {
              "system": "https://nahdo.org/sopt",
              "version": "9.2",
              "code": "11",
              "display": "Medicare Managed Care (Includes Medicare Advantage Plans)"
            }
          ]
        },
        "beneficiary": {
          "reference": "Patient/991104cb-e5c2-4414-8db9-33595aa725ad"
        },
        "period": {
          "start": "2024-10-01T00:00:00+00:00"
        },
        "payor": [
          {
            "reference": "Organization/14c012c4-6d6c-4c7d-982b-12ce1c72a699"
          }
        ]
      },
      "request": {
        "method": "PUT",
        "url": "Coverage/ae229ff5-2fba-4f29-ac42-603c9ac26e37"
      }
    },
    {
      "fullUrl": "https://madie.cms.gov/Organization/14c012c4-6d6c-4c7d-982b-12ce1c72a699",
      "resource": {
        "resourceType": "Organization",
        "id": "14c012c4-6d6c-4c7d-982b-12ce1c72a699",
        "meta": {
          "profile": [
            "http://hl7.org/fhir/us/qicore/StructureDefinition/qicore-organization"
          ]
        },
        "identifier": [
          {
            "use": "temp",
            "system": "urn:oid:2.16.840.1.113883.4.4",
            "value": "21-3259825"
          }
        ],
        "active": true,
        "type": [
          {
            "coding": [
              {
                "system": "http://terminology.hl7.org/CodeSystem/organization-type",
                "code": "pay",
                "display": "Payer"
              }
            ]
          }
        ],
        "name": "Blue Cross Blue Shield of Texas",
        "telecom": [
          {
            "system": "phone",
            "value": "(+1) 972-766-6900"
          }
        ],
        "address": [
          {
            "use": "billing",
            "type": "postal",
            "line": [
              "P.O. Box 660044"
            ],
            "city": "Dallas",
            "state": "TX",
            "postalCode": "75266-0044",
            "country": "USA"
          }
        ]
      },
      "request": {
        "method": "PUT",
        "url": "Organization/14c012c4-6d6c-4c7d-982b-12ce1c72a699"
      }
    },
    {
      "fullUrl": "https://madie.cms.gov/MeasureReport/5f09afa3-79ff-4be0-8f06-bac6a7945cf2",
      "resource": {
        "resourceType": "MeasureReport",
        "id": "5f09afa3-79ff-4be0-8f06-bac6a7945cf2",
        "meta": {
          "profile": [
            "http://hl7.org/fhir/us/cqfmeasures/StructureDefinition/test-case-cqfm"
          ]
        },
        "contained": [
          {
            "resourceType": "Parameters",
            "id": "53f6d2a7-2065-4475-853f-10dd65194079-parameters",
            "parameter": [
              {
                "name": "subject",
                "valueString": "991104cb-e5c2-4414-8db9-33595aa725ad"
              }
            ]
          }
        ],
        "extension": [
          {
            "url": "http://hl7.org/fhir/us/cqfmeasures/StructureDefinition/cqfm-inputParameters",
            "valueReference": {
              "reference": "#53f6d2a7-2065-4475-853f-10dd65194079-parameters"
            }
          },
          {
            "url": "http://hl7.org/fhir/us/cqfmeasures/StructureDefinition/cqfm-testCaseDescription",
            "valueMarkdown": "LOS <24 hours"
          }
        ],
        "modifierExtension": [
          {
            "url": "http://hl7.org/fhir/us/cqfmeasures/StructureDefinition/cqfm-isTestCase",
            "valueBoolean": true
          }
        ],
        "status": "complete",
        "type": "individual",
        "measure": "https://madie.cms.gov/Measure/GlobalMalnutritionCompositeFHIR",
        "period": {
          "start": "2026-01-01",
          "end": "2026-12-31"
        },
        "group": [
          {
            "population": [
              {
                "code": {
                  "coding": [
                    {
                      "system": "http://terminology.hl7.org/CodeSystem/measure-population",
                      "code": "initial-population",
                      "display": "Initial Population"
                    }
                  ]
                },
                "count": 0
              },
              {
                "code": {
                  "coding": [
                    {
                      "system": "http://terminology.hl7.org/CodeSystem/measure-population",
                      "code": "measure-population",
                      "display": "Measure Population"
                    }
                  ]
                },
                "count": 0
              }
            ]
          },
          {
            "population": [
              {
                "code": {
                  "coding": [
                    {
                      "system": "http://terminology.hl7.org/CodeSystem/measure-population",
                      "code": "initial-population",
                      "display": "Initial Population"
                    }
                  ]
                },
                "count": 0
              },
              {
                "code": {
                  "coding": [
                    {
                      "system": "http://terminology.hl7.org/CodeSystem/measure-population",
                      "code": "measure-population",
                      "display": "Measure Population"
                    }
                  ]
                },
                "count": 0
              }
            ]
          },
          {
            "population": [
              {
                "code": {
                  "coding": [
                    {
                      "system": "http://terminology.hl7.org/CodeSystem/measure-population",
                      "code": "initial-population",
                      "display": "Initial Population"
                    }
                  ]
                },
                "count": 0
              },
              {
                "code": {
                  "coding": [
                    {
                      "system": "http://terminology.hl7.org/CodeSystem/measure-population",
                      "code": "measure-population",
                      "display": "Measure Population"
                    }
                  ]
                },
                "count": 0
              }
            ]
          },
          {
            "population": [
              {
                "code": {
                  "coding": [
                    {
                      "system": "http://terminology.hl7.org/CodeSystem/measure-population",
                      "code": "initial-population",
                      "display": "Initial Population"
                    }
                  ]
                },
                "count": 0
              },
              {
                "code": {
                  "coding": [
                    {
                      "system": "http://terminology.hl7.org/CodeSystem/measure-population",
                      "code": "measure-population",
                      "display": "Measure Population"
                    }
                  ]
                },
                "count": 0
              }
            ]
          },
          {
            "population": [
              {
                "code": {
                  "coding": [
                    {
                      "system": "http://terminology.hl7.org/CodeSystem/measure-population",
                      "code": "initial-population",
                      "display": "Initial Population"
                    }
                  ]
                },
                "count": 0
              },
              {
                "code": {
                  "coding": [
                    {
                      "system": "http://terminology.hl7.org/CodeSystem/measure-population",
                      "code": "measure-population",
                      "display": "Measure Population"
                    }
                  ]
                },
                "count": 0
              }
            ]
          },
          {
            "population": [
              {
                "code": {
                  "coding": [
                    {
                      "system": "http://terminology.hl7.org/CodeSystem/measure-population",
                      "code": "initial-population",
                      "display": "Initial Population"
                    }
                  ]
                },
                "count": 0
              },
              {
                "code": {
                  "coding": [
                    {
                      "system": "http://terminology.hl7.org/CodeSystem/measure-population",
                      "code": "measure-population",
                      "display": "Measure Population"
                    }
                  ]
                },
                "count": 0
              }
            ]
          }
        ],
        "evaluatedResource": [
          {
            "reference": "Patient/991104cb-e5c2-4414-8db9-33595aa725ad"
          },
          {
            "reference": "Encounter/ed87968d-a434-4f30-90f0-4d11fd391ed7"
          },
          {
            "reference": "Condition/3f49fa18-a14b-4980-8467-37c47bdd4e35"
          },
          {
            "reference": "Observation/c45adb2f-1676-44b8-a200-af58eb2b1ead"
          },
          {
            "reference": "Observation/be14d55b-32d3-4a7f-a151-9be21ddd17d2"
          },
          {
            "reference": "Procedure/949ceb88-2248-48a7-b090-e1f2ff5166b4"
          },
          {
            "reference": "Procedure/5dc98453-527c-4056-80e7-e66bd21f2e50"
          },
          {
            "reference": "Coverage/ae229ff5-2fba-4f29-ac42-603c9ac26e37"
          },
          {
            "reference": "Organization/14c012c4-6d6c-4c7d-982b-12ce1c72a699"
          }
        ]
      },
      "request": {
        "method": "PUT",
        "url": "MeasureReport/5f09afa3-79ff-4be0-8f06-bac6a7945cf2"
      }
    }
  ]
}