{"resourceType":"Bundle","id":"tests-9a07aa3c-20aa-4337-8c72-cbc4dea23ab9-bundle","type":"transaction","entry":[{"fullUrl":"https://madie.cms.gov/Patient/9a07aa3c-20aa-4337-8c72-cbc4dea23ab9","resource":{"resourceType":"Patient","id":"9a07aa3c-20aa-4337-8c72-cbc4dea23ab9","meta":{"profile":["http://hl7.org/fhir/us/qicore/StructureDefinition/qicore-patient"]},"extension":[{"url":"http://hl7.org/fhir/us/core/StructureDefinition/us-core-race","extension":[{"url":"ombCategory","valueCoding":{"system":"urn:oid:2.16.840.1.113883.6.238","code":"2028-9","display":"Asian"}},{"url":"text","valueString":"Asian"}]},{"url":"http://hl7.org/fhir/us/core/StructureDefinition/us-core-ethnicity","extension":[{"url":"ombCategory","valueCoding":{"system":"urn:oid:2.16.840.1.113883.6.238","code":"2135-2","display":"Hispanic or Latino"}},{"url":"text","valueString":"Hispanic or Latino"}]}],"identifier":[{"system":"http://hospital.smarthealthit.org","value":"999999995"}],"name":[{"family":"Bertha","given":["Betty"]}],"gender":"female","birthDate":"2024-01-02"},"request":{"method":"PUT","url":"Patient/9a07aa3c-20aa-4337-8c72-cbc4dea23ab9"}},{"fullUrl":"https://madie.cms.gov/Encounter/5836616e-c455-44a4-8286-dd2ac059c71e","resource":{"resourceType":"Encounter","id":"5836616e-c455-44a4-8286-dd2ac059c71e","meta":{"profile":["http://hl7.org/fhir/us/qicore/StructureDefinition/qicore-encounter"]},"status":"finished","class":{"system":"http://terminology.hl7.org/CodeSystem/v3-ActCode","code":"AMB","display":"ambulatory"},"type":[{"coding":[{"system":"http://www.ada.org/cdt","code":"D0120","display":"periodic oral evaluation - established patient"}]}],"subject":{"reference":"Patient/9a07aa3c-20aa-4337-8c72-cbc4dea23ab9"},"period":{"start":"2025-01-01T00:00:00.000Z","end":"2025-01-01T01:15:00.000Z"}},"request":{"method":"PUT","url":"Encounter/5836616e-c455-44a4-8286-dd2ac059c71e"}},{"fullUrl":"https://madie.cms.gov/MeasureReport/709a00e4-72ef-4cf5-8dde-c8cd411a0de8","resource":{"resourceType":"MeasureReport","id":"709a00e4-72ef-4cf5-8dde-c8cd411a0de8","meta":{"profile":["http://hl7.org/fhir/us/cqfmeasures/StructureDefinition/test-case-cqfm"]},"contained":[{"resourceType":"Parameters","id":"5cc5d9a5-a7f7-4c18-a19e-f97ee3afe328-parameters","parameter":[{"name":"subject","valueString":"9a07aa3c-20aa-4337-8c72-cbc4dea23ab9"}]}],"extension":[{"url":"http://hl7.org/fhir/us/cqfmeasures/StructureDefinition/cqfm-inputParameters","valueReference":{"reference":"#5cc5d9a5-a7f7-4c18-a19e-f97ee3afe328-parameters"}},{"url":"http://hl7.org/fhir/us/cqfmeasures/StructureDefinition/cqfm-testCaseDescription","valueMarkdown":"Patient 11 months and 30 days old w/ an Oral Evaluation Encounter 1/1 of the Measurement Period."}],"modifierExtension":[{"url":"http://hl7.org/fhir/us/cqfmeasures/StructureDefinition/cqfm-isTestCase","valueBoolean":true}],"status":"complete","type":"individual","measure":"https://madie.cms.gov/Measure/PrimaryCariesPreventionasOfferedbyDentistsFHIR","period":{"start":"2025-01-01","end":"2025-12-31"},"group":[{"population":[{"code":{"coding":[{"system":"http://terminology.hl7.org/CodeSystem/measure-population","code":"initial-population","display":"Initial Population"}]},"count":0},{"code":{"coding":[{"system":"http://terminology.hl7.org/CodeSystem/measure-population","code":"denominator","display":"Denominator"}]},"count":0},{"code":{"coding":[{"system":"http://terminology.hl7.org/CodeSystem/measure-population","code":"denominator-exclusion","display":"Denominator Exclusion"}]},"count":0},{"code":{"coding":[{"system":"http://terminology.hl7.org/CodeSystem/measure-population","code":"numerator","display":"Numerator"}]},"count":0}]}],"evaluatedResource":[{"reference":"Patient/9a07aa3c-20aa-4337-8c72-cbc4dea23ab9"},{"reference":"Encounter/5836616e-c455-44a4-8286-dd2ac059c71e"}]},"request":{"method":"PUT","url":"MeasureReport/709a00e4-72ef-4cf5-8dde-c8cd411a0de8"}}]}