{
  "resourceType": "Bundle",
  "id": "ScreAtriRefAsseModDxCp2",
  "type": "transaction",
  "entry": [
    {
      "fullUrl": "https://madie.cms.gov/Patient/111e176b-ea35-4635-b8b9-9480d848a7a1",
      "resource": {
        "resourceType": "Patient",
        "id": "111e176b-ea35-4635-b8b9-9480d848a7a1",
        "meta": {
          "profile": [
            "http://hl7.org/fhir/us/qicore/StructureDefinition/qicore-patient"
          ]
        },
        "text": {
          "status": "generated",
          "div": "<div xmlns=\"http://www.w3.org/1999/xhtml\"><div class=\"hapiHeaderText\">ScreAtriRefAsseModDxCp2, , <b> </b></div><table class=\"hapiPropertyTable\"><tbody><tr><td>Identifier</td><td>ScreAtriRefAsseModDxCp2</td></tr><tr><td>Date of birth</td><td><span>14 May 1950</span></td></tr></tbody></table></div>"
        },
        "extension": [
          {
            "url": "http://hl7.org/fhir/us/core/StructureDefinition/us-core-race",
            "extension": [
              {
                "url": "ombCategory",
                "valueCoding": {
                  "system": "urn:oid:2.16.840.1.113883.6.238",
                  "code": "2106-3",
                  "display": "White",
                  "userSelected": true
                }
              },
              {
                "url": "text",
                "valueString": "White"
              }
            ]
          },
          {
            "url": "http://hl7.org/fhir/us/core/StructureDefinition/us-core-ethnicity",
            "extension": [
              {
                "url": "ombCategory",
                "valueCoding": {
                  "system": "urn:oid:2.16.840.1.113883.6.238",
                  "code": "2186-5",
                  "display": "Not Hispanic or Latino",
                  "userSelected": true
                }
              },
              {
                "url": "text",
                "valueString": "Not Hispanic or Latino"
              }
            ]
          }
        ],
        "identifier": [
          {
            "type": {
              "coding": [
                {
                  "system": "http://terminology.hl7.org/CodeSystem/v2-0203",
                  "code": "MR"
                }
              ]
            },
            "system": "https://madie.cms.gov/",
            "value": "ScreAtriRefAsseModDxCp2"
          }
        ],
        "active": true,
        "name": [
          {
            "use": "usual",
            "text": "ScreAtriRefAsseModDxCp2",
            "family": "DENOMPass4",
            "given": [
              "ScreAtriRefAsseModDxCp2DENOMPass4"
            ]
          }
        ],
        "gender": "male",
        "birthDate": "1950-05-14",
        "address": [
          {
            "text": "ScreAtriRefAsseModDxCp2, Screened Not at risk Assessed Severely Malnourished Diagnosed Care Plan, ID=ScreAtriRefAsseModDxCp2, DOB: 14 May 1950"
          }
        ]
      },
      "request": {
        "method": "PUT",
        "url": "Patient/111e176b-ea35-4635-b8b9-9480d848a7a1"
      }
    },
    {
      "fullUrl": "https://madie.cms.gov/Encounter/da4ec216-7c69-42af-86b0-e92095d481df",
      "resource": {
        "resourceType": "Encounter",
        "id": "da4ec216-7c69-42af-86b0-e92095d481df",
        "meta": {
          "profile": [
            "http://hl7.org/fhir/us/qicore/StructureDefinition/qicore-encounter"
          ]
        },
        "status": "finished",
        "class": {
          "system": "http://terminology.hl7.org/CodeSystem/v3-ActCode",
          "code": "IMP",
          "display": "inpatient encounter"
        },
        "type": [
          {
            "coding": [
              {
                "system": "http://snomed.info/sct",
                "code": "183452005"
              }
            ]
          }
        ],
        "subject": {
          "reference": "Patient/111e176b-ea35-4635-b8b9-9480d848a7a1"
        },
        "period": {
          "start": "2026-02-01T08:00:00.000Z",
          "end": "2026-02-07T08:15:00.000Z"
        }
      },
      "request": {
        "method": "PUT",
        "url": "Encounter/da4ec216-7c69-42af-86b0-e92095d481df"
      }
    },
    {
      "fullUrl": "https://madie.cms.gov/Condition/d98c1f03-59db-4241-8eeb-651afb96c05a",
      "resource": {
        "resourceType": "Condition",
        "id": "d98c1f03-59db-4241-8eeb-651afb96c05a",
        "meta": {
          "profile": [
            "http://hl7.org/fhir/us/qicore/StructureDefinition/qicore-condition"
          ]
        },
        "clinicalStatus": {
          "coding": [
            {
              "system": "http://terminology.hl7.org/CodeSystem/condition-clinical",
              "code": "active",
              "display": "Active",
              "userSelected": true
            }
          ]
        },
        "verificationStatus": {
          "coding": [
            {
              "system": "http://terminology.hl7.org/CodeSystem/condition-ver-status",
              "code": "confirmed",
              "display": "Confirmed",
              "userSelected": true
            }
          ]
        },
        "category": [
          {
            "coding": [
              {
                "system": "http://terminology.hl7.org/CodeSystem/condition-category",
                "code": "encounter-diagnosis",
                "display": "Encounter Diagnosis",
                "userSelected": true
              }
            ]
          }
        ],
        "code": {
          "coding": [
            {
              "system": "http://hl7.org/fhir/sid/icd-10-cm",
              "code": "E43",
              "display": "Unspecified severe protein-calorie malnutrition",
              "userSelected": true
            }
          ]
        },
        "subject": {
          "reference": "Patient/111e176b-ea35-4635-b8b9-9480d848a7a1"
        },
        "onsetPeriod": {
          "start": "2026-02-01T08:00:00.000+00:00"
        },
        "recordedDate": "2026-02-01T11:00:00.000+00:00"
      },
      "request": {
        "method": "PUT",
        "url": "Condition/d98c1f03-59db-4241-8eeb-651afb96c05a"
      }
    },
    {
      "fullUrl": "https://madie.cms.gov/Observation/f1c7e178-7c58-47bb-9365-ddb1b880250c",
      "resource": {
        "resourceType": "Observation",
        "id": "f1c7e178-7c58-47bb-9365-ddb1b880250c",
        "meta": {
          "profile": [
            "http://hl7.org/fhir/us/qicore/StructureDefinition/qicore-observation"
          ]
        },
        "status": "final",
        "category": [
          {
            "coding": [
              {
                "system": "http://terminology.hl7.org/CodeSystem/observation-category",
                "code": "survey",
                "display": "Survey"
              }
            ]
          }
        ],
        "code": {
          "coding": [
            {
              "system": "http://loinc.org",
              "code": "98968-1",
              "display": "Initial screening NRS_2002",
              "userSelected": true
            }
          ]
        },
        "subject": {
          "reference": "Patient/111e176b-ea35-4635-b8b9-9480d848a7a1"
        },
        "effectiveDateTime": "2026-02-01T09:00:00.000+00:00",
        "valueCodeableConcept": {
          "coding": [
            {
              "system": "http://snomed.info/sct",
              "code": "704358009",
              "display": "At risk for nutritional deficit (finding)",
              "userSelected": true
            }
          ]
        }
      },
      "request": {
        "method": "PUT",
        "url": "Observation/f1c7e178-7c58-47bb-9365-ddb1b880250c"
      }
    },
    {
      "fullUrl": "https://madie.cms.gov/Observation/3dc0842b-7601-41bf-af13-8d6d04bb244e",
      "resource": {
        "resourceType": "Observation",
        "id": "3dc0842b-7601-41bf-af13-8d6d04bb244e",
        "meta": {
          "profile": [
            "http://hl7.org/fhir/us/qicore/StructureDefinition/qicore-observation"
          ]
        },
        "status": "final",
        "category": [
          {
            "coding": [
              {
                "system": "http://terminology.hl7.org/CodeSystem/observation-category",
                "code": "survey",
                "display": "Survey"
              }
            ]
          }
        ],
        "code": {
          "coding": [
            {
              "system": "http://loinc.org",
              "code": "75285-7",
              "display": "Comparative nutrition assessment standards panel",
              "userSelected": true
            }
          ]
        },
        "subject": {
          "reference": "Patient/111e176b-ea35-4635-b8b9-9480d848a7a1"
        },
        "effectiveDateTime": "2026-02-01T10:00:00.000+00:00",
        "valueCodeableConcept": {
          "coding": [
            {
              "system": "http://snomed.info/sct",
              "code": "102636009",
              "display": "Chronic nutritional deficiency (finding)",
              "userSelected": true
            }
          ]
        }
      },
      "request": {
        "method": "PUT",
        "url": "Observation/3dc0842b-7601-41bf-af13-8d6d04bb244e"
      }
    },
    {
      "fullUrl": "https://madie.cms.gov/Procedure/8c5a8c31-4f43-4ef2-9ac0-f2ccbc3cce2a",
      "resource": {
        "resourceType": "Procedure",
        "id": "8c5a8c31-4f43-4ef2-9ac0-f2ccbc3cce2a",
        "meta": {
          "profile": [
            "http://hl7.org/fhir/us/qicore/StructureDefinition/qicore-procedure"
          ]
        },
        "extension": [
          {
            "url": "http://hl7.org/fhir/us/qicore/StructureDefinition/qicore-recorded",
            "valueDateTime": "2026-02-01T11:30:00.000Z"
          }
        ],
        "status": "completed",
        "code": {
          "coding": [
            {
              "system": "http://snomed.info/sct",
              "code": "306165000",
              "display": "Referral to hospital-based dietetics service (procedure)"
            }
          ],
          "text": "Referral to hospital-based dietetics service (procedure)"
        },
        "subject": {
          "reference": "Patient/111e176b-ea35-4635-b8b9-9480d848a7a1"
        },
        "encounter": {
          "reference": "Encounter/ScreAtriRefAsseModDxCp2DENOMPass4"
        },
        "performedPeriod": {
          "start": "2026-02-01T11:30:00.000Z",
          "end": "2026-02-07T08:15:00.000Z"
        }
      },
      "request": {
        "method": "PUT",
        "url": "Procedure/8c5a8c31-4f43-4ef2-9ac0-f2ccbc3cce2a"
      }
    },
    {
      "fullUrl": "https://madie.cms.gov/Procedure/37e6e6bf-deb0-4af2-9024-87f1e6963b91",
      "resource": {
        "resourceType": "Procedure",
        "id": "37e6e6bf-deb0-4af2-9024-87f1e6963b91",
        "meta": {
          "profile": [
            "http://hl7.org/fhir/us/qicore/StructureDefinition/qicore-procedure"
          ]
        },
        "extension": [
          {
            "url": "http://hl7.org/fhir/us/qicore/StructureDefinition/qicore-recorded",
            "valueDateTime": "2026-02-02T11:30:00.000Z"
          }
        ],
        "status": "completed",
        "code": {
          "coding": [
            {
              "system": "http://snomed.info/sct",
              "code": "182922004",
              "display": "Dietary regime (regime/therapy)"
            }
          ],
          "text": "Dietary regime (regime/therapy)"
        },
        "subject": {
          "reference": "Patient/111e176b-ea35-4635-b8b9-9480d848a7a1"
        },
        "encounter": {
          "reference": "Encounter/ScreAtriRefAsseModDxCp2DENOMPass4"
        },
        "performedPeriod": {
          "start": "2026-02-01T11:30:00.000Z",
          "end": "2026-02-07T08:15:00.000Z"
        }
      },
      "request": {
        "method": "PUT",
        "url": "Procedure/37e6e6bf-deb0-4af2-9024-87f1e6963b91"
      }
    },
    {
      "fullUrl": "https://madie.cms.gov/Coverage/16417f39-cbc8-424f-b57c-e78d35583315",
      "resource": {
        "resourceType": "Coverage",
        "id": "16417f39-cbc8-424f-b57c-e78d35583315",
        "meta": {
          "profile": [
            "http://hl7.org/fhir/us/qicore/StructureDefinition/qicore-coverage"
          ]
        },
        "status": "active",
        "type": {
          "coding": [
            {
              "system": "https://nahdo.org/sopt",
              "version": "9.2",
              "code": "11",
              "display": "Medicare Managed Care (Includes Medicare Advantage Plans)"
            }
          ]
        },
        "beneficiary": {
          "reference": "Patient/111e176b-ea35-4635-b8b9-9480d848a7a1"
        },
        "period": {
          "start": "2026-10-01T00:00:00+00:00"
        },
        "payor": [
          {
            "reference": "Organization/8fe5a9ea-325f-496a-b8a6-2549fe129762"
          }
        ]
      },
      "request": {
        "method": "PUT",
        "url": "Coverage/16417f39-cbc8-424f-b57c-e78d35583315"
      }
    },
    {
      "fullUrl": "https://madie.cms.gov/Organization/8fe5a9ea-325f-496a-b8a6-2549fe129762",
      "resource": {
        "resourceType": "Organization",
        "id": "8fe5a9ea-325f-496a-b8a6-2549fe129762",
        "meta": {
          "profile": [
            "http://hl7.org/fhir/us/qicore/StructureDefinition/qicore-organization"
          ]
        },
        "identifier": [
          {
            "use": "temp",
            "system": "urn:oid:2.16.840.1.113883.4.4",
            "value": "21-3259825"
          }
        ],
        "active": true,
        "type": [
          {
            "coding": [
              {
                "system": "http://terminology.hl7.org/CodeSystem/organization-type",
                "code": "pay",
                "display": "Payer"
              }
            ]
          }
        ],
        "name": "Blue Cross Blue Shield of Texas",
        "telecom": [
          {
            "system": "phone",
            "value": "(+1) 972-766-6900"
          }
        ],
        "address": [
          {
            "use": "billing",
            "type": "postal",
            "line": [
              "P.O. Box 660044"
            ],
            "city": "Dallas",
            "state": "TX",
            "postalCode": "75266-0044",
            "country": "USA"
          }
        ]
      },
      "request": {
        "method": "PUT",
        "url": "Organization/8fe5a9ea-325f-496a-b8a6-2549fe129762"
      }
    },
    {
      "fullUrl": "https://madie.cms.gov/MeasureReport/caa27587-60bc-4865-9c6b-a41f8fcb5eb2",
      "resource": {
        "resourceType": "MeasureReport",
        "id": "caa27587-60bc-4865-9c6b-a41f8fcb5eb2",
        "meta": {
          "profile": [
            "http://hl7.org/fhir/us/cqfmeasures/StructureDefinition/test-case-cqfm"
          ]
        },
        "contained": [
          {
            "resourceType": "Parameters",
            "id": "c488891c-24c4-4e52-b58a-4e5265e7e2a6-parameters",
            "parameter": [
              {
                "name": "subject",
                "valueString": "111e176b-ea35-4635-b8b9-9480d848a7a1"
              }
            ]
          }
        ],
        "extension": [
          {
            "url": "http://hl7.org/fhir/us/cqfmeasures/StructureDefinition/cqfm-inputParameters",
            "valueReference": {
              "reference": "#c488891c-24c4-4e52-b58a-4e5265e7e2a6-parameters"
            }
          },
          {
            "url": "http://hl7.org/fhir/us/cqfmeasures/StructureDefinition/cqfm-testCaseDescription",
            "valueMarkdown": "Screened, At Risk, Referral, Assessed, Moderate Malnutrition, Diagnosis, Nutrition Care Plan"
          }
        ],
        "modifierExtension": [
          {
            "url": "http://hl7.org/fhir/us/cqfmeasures/StructureDefinition/cqfm-isTestCase",
            "valueBoolean": true
          }
        ],
        "status": "complete",
        "type": "individual",
        "measure": "https://madie.cms.gov/Measure/GlobalMalnutritionCompositeFHIR",
        "period": {
          "start": "2026-01-01",
          "end": "2026-12-31"
        },
        "group": [
          {
            "population": [
              {
                "code": {
                  "coding": [
                    {
                      "system": "http://terminology.hl7.org/CodeSystem/measure-population",
                      "code": "initial-population",
                      "display": "Initial Population"
                    }
                  ]
                },
                "count": 1
              },
              {
                "code": {
                  "coding": [
                    {
                      "system": "http://terminology.hl7.org/CodeSystem/measure-population",
                      "code": "measure-population",
                      "display": "Measure Population"
                    }
                  ]
                },
                "count": 1
              },
              {
                "code": {
                  "coding": [
                    {
                      "system": "http://terminology.hl7.org/CodeSystem/measure-population",
                      "code": "measure-population-observation",
                      "display": "Measure Population Observation"
                    }
                  ]
                },
                "count": 1
              }
            ]
          },
          {
            "population": [
              {
                "code": {
                  "coding": [
                    {
                      "system": "http://terminology.hl7.org/CodeSystem/measure-population",
                      "code": "initial-population",
                      "display": "Initial Population"
                    }
                  ]
                },
                "count": 1
              },
              {
                "code": {
                  "coding": [
                    {
                      "system": "http://terminology.hl7.org/CodeSystem/measure-population",
                      "code": "measure-population",
                      "display": "Measure Population"
                    }
                  ]
                },
                "count": 1
              },
              {
                "code": {
                  "coding": [
                    {
                      "system": "http://terminology.hl7.org/CodeSystem/measure-population",
                      "code": "measure-population-observation",
                      "display": "Measure Population Observation"
                    }
                  ]
                },
                "count": 1
              }
            ]
          },
          {
            "population": [
              {
                "code": {
                  "coding": [
                    {
                      "system": "http://terminology.hl7.org/CodeSystem/measure-population",
                      "code": "initial-population",
                      "display": "Initial Population"
                    }
                  ]
                },
                "count": 1
              },
              {
                "code": {
                  "coding": [
                    {
                      "system": "http://terminology.hl7.org/CodeSystem/measure-population",
                      "code": "measure-population",
                      "display": "Measure Population"
                    }
                  ]
                },
                "count": 1
              },
              {
                "code": {
                  "coding": [
                    {
                      "system": "http://terminology.hl7.org/CodeSystem/measure-population",
                      "code": "measure-population-observation",
                      "display": "Measure Population Observation"
                    }
                  ]
                },
                "count": 1
              }
            ]
          },
          {
            "population": [
              {
                "code": {
                  "coding": [
                    {
                      "system": "http://terminology.hl7.org/CodeSystem/measure-population",
                      "code": "initial-population",
                      "display": "Initial Population"
                    }
                  ]
                },
                "count": 1
              },
              {
                "code": {
                  "coding": [
                    {
                      "system": "http://terminology.hl7.org/CodeSystem/measure-population",
                      "code": "measure-population",
                      "display": "Measure Population"
                    }
                  ]
                },
                "count": 1
              },
              {
                "code": {
                  "coding": [
                    {
                      "system": "http://terminology.hl7.org/CodeSystem/measure-population",
                      "code": "measure-population-observation",
                      "display": "Measure Population Observation"
                    }
                  ]
                },
                "count": 0
              }
            ]
          },
          {
            "population": [
              {
                "code": {
                  "coding": [
                    {
                      "system": "http://terminology.hl7.org/CodeSystem/measure-population",
                      "code": "initial-population",
                      "display": "Initial Population"
                    }
                  ]
                },
                "count": 1
              },
              {
                "code": {
                  "coding": [
                    {
                      "system": "http://terminology.hl7.org/CodeSystem/measure-population",
                      "code": "measure-population",
                      "display": "Measure Population"
                    }
                  ]
                },
                "count": 1
              },
              {
                "code": {
                  "coding": [
                    {
                      "system": "http://terminology.hl7.org/CodeSystem/measure-population",
                      "code": "measure-population-observation",
                      "display": "Measure Population Observation"
                    }
                  ]
                },
                "count": 3
              }
            ]
          },
          {
            "population": [
              {
                "code": {
                  "coding": [
                    {
                      "system": "http://terminology.hl7.org/CodeSystem/measure-population",
                      "code": "initial-population",
                      "display": "Initial Population"
                    }
                  ]
                },
                "count": 1
              },
              {
                "code": {
                  "coding": [
                    {
                      "system": "http://terminology.hl7.org/CodeSystem/measure-population",
                      "code": "measure-population",
                      "display": "Measure Population"
                    }
                  ]
                },
                "count": 1
              },
              {
                "code": {
                  "coding": [
                    {
                      "system": "http://terminology.hl7.org/CodeSystem/measure-population",
                      "code": "measure-population-observation",
                      "display": "Measure Population Observation"
                    }
                  ]
                },
                "count": 75
              }
            ]
          }
        ],
        "evaluatedResource": [
          {
            "reference": "Patient/111e176b-ea35-4635-b8b9-9480d848a7a1"
          },
          {
            "reference": "Encounter/da4ec216-7c69-42af-86b0-e92095d481df"
          },
          {
            "reference": "Condition/d98c1f03-59db-4241-8eeb-651afb96c05a"
          },
          {
            "reference": "Observation/f1c7e178-7c58-47bb-9365-ddb1b880250c"
          },
          {
            "reference": "Observation/3dc0842b-7601-41bf-af13-8d6d04bb244e"
          },
          {
            "reference": "Procedure/8c5a8c31-4f43-4ef2-9ac0-f2ccbc3cce2a"
          },
          {
            "reference": "Procedure/37e6e6bf-deb0-4af2-9024-87f1e6963b91"
          },
          {
            "reference": "Coverage/16417f39-cbc8-424f-b57c-e78d35583315"
          },
          {
            "reference": "Organization/8fe5a9ea-325f-496a-b8a6-2549fe129762"
          }
        ]
      },
      "request": {
        "method": "PUT",
        "url": "MeasureReport/caa27587-60bc-4865-9c6b-a41f8fcb5eb2"
      }
    }
  ]
}