{
  "resourceType": "Bundle",
  "id": "63ec096bccb3770120fea0ad",
  "type": "transaction",
  "entry": [
    {
      "fullUrl": "https://madie.cms.gov/Patient/1161c307-a0c3-455b-9063-be03510884ae",
      "resource": {
        "resourceType": "Patient",
        "id": "1161c307-a0c3-455b-9063-be03510884ae",
        "meta": {
          "profile": [
            "http://hl7.org/fhir/us/qicore/StructureDefinition/qicore-patient"
          ]
        },
        "text": {
          "status": "generated",
          "div": "<div xmlns=\"http://www.w3.org/1999/xhtml\"><div class=\"hapiHeaderText\">NoResult <b>SODIUMFAIL </b></div><table class=\"hapiPropertyTable\"><tbody><tr><td>Identifier</td><td>eb360e3679224871964d5b3575a59ceb3c2f6260372fb1be3ea61ac84d2937cf</td></tr><tr><td>Date of birth</td><td><span>15 June 1956</span></td></tr></tbody></table></div>"
        },
        "extension": [
          {
            "url": "http://hl7.org/fhir/us/core/StructureDefinition/us-core-race",
            "extension": [
              {
                "url": "ombCategory",
                "valueCoding": {
                  "system": "urn:oid:2.16.840.1.113883.6.238",
                  "code": "1002-5",
                  "display": "American Indian or Alaska Native",
                  "userSelected": true
                }
              },
              {
                "url": "text",
                "valueString": "American Indian or Alaska Native"
              }
            ]
          },
          {
            "url": "http://hl7.org/fhir/us/core/StructureDefinition/us-core-ethnicity",
            "extension": [
              {
                "url": "ombCategory",
                "valueCoding": {
                  "system": "urn:oid:2.16.840.1.113883.6.238",
                  "code": "2186-5",
                  "display": "Not Hispanic or Latino",
                  "userSelected": true
                }
              },
              {
                "url": "text",
                "valueString": "Not Hispanic or Latino"
              }
            ]
          }
        ],
        "identifier": [
          {
            "type": {
              "coding": [
                {
                  "system": "http://terminology.hl7.org/CodeSystem/v2-0203",
                  "code": "MR"
                }
              ]
            },
            "system": "https://bonnie-fhir.healthit.gov/",
            "value": "63ec096bccb3770120fea0ad"
          }
        ],
        "active": true,
        "name": [
          {
            "use": "usual",
            "family": "PerformedOnAdmission",
            "given": [
              "OxygenSatPass"
            ]
          }
        ],
        "gender": "male",
        "birthDate": "1940-07-01"
      },
      "request": {
        "method": "PUT",
        "url": "Patient/1161c307-a0c3-455b-9063-be03510884ae"
      }
    },
    {
      "fullUrl": "https://madie.cms.gov/Encounter/940d3b30-8a57-4859-b553-e8e7f25afef3",
      "resource": {
        "resourceType": "Encounter",
        "id": "940d3b30-8a57-4859-b553-e8e7f25afef3",
        "meta": {
          "profile": [
            "http://hl7.org/fhir/us/qicore/StructureDefinition/qicore-encounter"
          ]
        },
        "status": "finished",
        "class": {
          "system": "http://terminology.hl7.org/CodeSystem/v3-ActCode",
          "code": "IMP",
          "display": "inpatient encounter",
          "userSelected": true
        },
        "type": [
          {
            "coding": [
              {
                "system": "http://snomed.info/sct",
                "code": "183452005"
              }
            ]
          }
        ],
        "subject": {
          "reference": "Patient/1161c307-a0c3-455b-9063-be03510884ae"
        },
        "period": {
          "start": "2025-07-01T12:01:00.000+00:00",
          "end": "2025-07-04T08:15:00.000+00:00"
        }
      },
      "request": {
        "method": "PUT",
        "url": "Encounter/940d3b30-8a57-4859-b553-e8e7f25afef3"
      }
    },
    {
      "fullUrl": "https://madie.cms.gov/Encounter/940d3b30-8a57-4859-b553-e8e7f25afef31",
      "resource": {
        "resourceType": "Encounter",
        "id": "940d3b30-8a57-4859-b553-e8e7f25afef31",
        "meta": {
          "profile": [
            "http://hl7.org/fhir/us/qicore/StructureDefinition/qicore-encounter"
          ]
        },
        "status": "finished",
        "class": {
          "system": "http://terminology.hl7.org/CodeSystem/v3-ActCode",
          "code": "IMP",
          "display": "inpatient encounter",
          "userSelected": true
        },
        "type": [
          {
            "coding": [
              {
                "system": "http://snomed.info/sct",
                "code": "183452005",
                "display": "Emergency hospital admission (procedure)"
              }
            ]
          }
        ],
        "subject": {
          "reference": "Patient/1161c307-a0c3-455b-9063-be03510884ae"
        },
        "period": {
          "start": "2025-12-31T12:01:00.000+00:00",
          "end": "2026-01-03T10:00:00.000+00:00"
        }
      },
      "request": {
        "method": "PUT",
        "url": "Encounter/940d3b30-8a57-4859-b553-e8e7f25afef31"
      }
    },
    {
      "fullUrl": "https://madie.cms.gov/Encounter/940d3b30-8a57-4859-b553-e8e7f25afef32",
      "resource": {
        "resourceType": "Encounter",
        "id": "940d3b30-8a57-4859-b553-e8e7f25afef32",
        "meta": {
          "profile": [
            "http://hl7.org/fhir/us/qicore/StructureDefinition/qicore-encounter"
          ]
        },
        "status": "finished",
        "class": {
          "system": "http://terminology.hl7.org/CodeSystem/v3-ActCode",
          "code": "IMP",
          "display": "inpatient encounter",
          "userSelected": true
        },
        "type": [
          {
            "coding": [
              {
                "system": "http://snomed.info/sct",
                "code": "32485007",
                "display": "Hospital admission (procedure)"
              }
            ]
          }
        ],
        "subject": {
          "reference": "Patient/1161c307-a0c3-455b-9063-be03510884ae"
        },
        "period": {
          "start": "2026-01-04T08:00:00.000+00:00",
          "end": "2026-01-08T08:15:00.000+00:00"
        }
      },
      "request": {
        "method": "PUT",
        "url": "Encounter/940d3b30-8a57-4859-b553-e8e7f25afef32"
      }
    },
    {
      "fullUrl": "https://madie.cms.gov/Observation/35bf7990-bb12-4c28-b760-e83e52f5a0e4",
      "resource": {
        "resourceType": "Observation",
        "id": "35bf7990-bb12-4c28-b760-e83e52f5a0e4",
        "meta": {
          "profile": [
            "http://hl7.org/fhir/us/qicore/StructureDefinition/qicore-observation"
          ]
        },
        "status": "final",
        "category": [
          {
            "coding": [
              {
                "system": "http://terminology.hl7.org/CodeSystem/observation-category",
                "code": "vital-signs",
                "display": "Vital Signs",
                "userSelected": true
              }
            ]
          }
        ],
        "code": {
          "coding": [
            {
              "system": "http://loinc.org",
              "code": "59408-5",
              "display": "Oxygen saturation in Arterial blood by Pulse oximetry"
            }
          ]
        },
        "subject": {
          "reference": "Patient/1161c307-a0c3-455b-9063-be03510884ae"
        },
        "effectiveDateTime": "2025-07-01T11:59:00.000+00:00",
        "valueQuantity": {
          "value": 98,
          "unit": "%",
          "system": "http://unitsofmeasure.org",
          "code": "%"
        }
      },
      "request": {
        "method": "PUT",
        "url": "Observation/35bf7990-bb12-4c28-b760-e83e52f5a0e4"
      }
    },
    {
      "fullUrl": "https://madie.cms.gov/Coverage/92356124-1f05-4335-ba2f-2c449445c9fc",
      "resource": {
        "resourceType": "Coverage",
        "id": "92356124-1f05-4335-ba2f-2c449445c9fc",
        "meta": {
          "profile": [
            "http://hl7.org/fhir/us/qicore/StructureDefinition/qicore-coverage"
          ]
        },
        "status": "active",
        "type": {
          "coding": [
            {
              "system": "https://nahdo.org/sopt",
              "version": "1.0.1",
              "code": "1",
              "display": "Medicare payer",
              "userSelected": true
            }
          ]
        },
        "beneficiary": {
          "reference": "Patient/1161c307-a0c3-455b-9063-be03510884ae"
        },
        "payor": [
          {
            "reference": "Organization/123456"
          }
        ]
      },
      "request": {
        "method": "PUT",
        "url": "Coverage/92356124-1f05-4335-ba2f-2c449445c9fc"
      }
    },
    {
      "fullUrl": "https://madie.cms.gov/Practitioner/6ecd27a6-540a-4975-9526-d56d9d24228c",
      "resource": {
        "resourceType": "Practitioner",
        "id": "6ecd27a6-540a-4975-9526-d56d9d24228c",
        "meta": {
          "profile": [
            "http://hl7.org/fhir/us/qicore/StructureDefinition/qicore-practitioner"
          ]
        },
        "identifier": [
          {
            "system": "http://hl7.org/fhir/sid/us-npi",
            "value": "123456"
          }
        ],
        "name": [
          {
            "family": "Evil",
            "prefix": [
              "Dr"
            ]
          }
        ]
      },
      "request": {
        "method": "PUT",
        "url": "Practitioner/6ecd27a6-540a-4975-9526-d56d9d24228c"
      }
    },
    {
      "fullUrl": "https://madie.cms.gov/MeasureReport/39f1d10c-6713-42c7-ab0d-f58d2b7bcf3d",
      "resource": {
        "resourceType": "MeasureReport",
        "id": "39f1d10c-6713-42c7-ab0d-f58d2b7bcf3d",
        "meta": {
          "profile": [
            "http://hl7.org/fhir/us/cqfmeasures/StructureDefinition/test-case-cqfm"
          ]
        },
        "contained": [
          {
            "resourceType": "Parameters",
            "id": "50c163d0-c9cb-4a2b-b1a6-d91876b7b1e1-parameters",
            "parameter": [
              {
                "name": "subject",
                "valueString": "1161c307-a0c3-455b-9063-be03510884ae"
              }
            ]
          }
        ],
        "extension": [
          {
            "url": "http://hl7.org/fhir/us/cqfmeasures/StructureDefinition/cqfm-inputParameters",
            "valueReference": {
              "reference": "#50c163d0-c9cb-4a2b-b1a6-d91876b7b1e1-parameters"
            }
          },
          {
            "url": "http://hl7.org/fhir/us/cqfmeasures/StructureDefinition/cqfm-testCaseDescription",
            "valueMarkdown": "Multiple encs, enc 7/01, O2 sats evaluated"
          }
        ],
        "modifierExtension": [
          {
            "url": "http://hl7.org/fhir/us/cqfmeasures/StructureDefinition/cqfm-isTestCase",
            "valueBoolean": true
          }
        ],
        "status": "complete",
        "type": "individual",
        "measure": "https://madie.cms.gov/Measure/HybridHospitalWideMortalityFHIR",
        "period": {
          "start": "2025-07-01",
          "end": "2026-06-30"
        },
        "group": [
          {
            "population": [
              {
                "code": {
                  "coding": [
                    {
                      "system": "http://terminology.hl7.org/CodeSystem/measure-population",
                      "code": "initial-population",
                      "display": "Initial Population"
                    }
                  ]
                },
                "count": 3
              }
            ]
          }
        ],
        "evaluatedResource": [
          {
            "reference": "Patient/1161c307-a0c3-455b-9063-be03510884ae"
          },
          {
            "reference": "Encounter/940d3b30-8a57-4859-b553-e8e7f25afef3"
          },
          {
            "reference": "Encounter/940d3b30-8a57-4859-b553-e8e7f25afef31"
          },
          {
            "reference": "Encounter/940d3b30-8a57-4859-b553-e8e7f25afef32"
          },
          {
            "reference": "Observation/35bf7990-bb12-4c28-b760-e83e52f5a0e4"
          },
          {
            "reference": "Coverage/92356124-1f05-4335-ba2f-2c449445c9fc"
          },
          {
            "reference": "Practitioner/6ecd27a6-540a-4975-9526-d56d9d24228c"
          }
        ]
      },
      "request": {
        "method": "PUT",
        "url": "MeasureReport/39f1d10c-6713-42c7-ab0d-f58d2b7bcf3d"
      }
    }
  ]
}