{
  "resourceType": "Bundle",
  "id": "63ec096cccb3770120fea178",
  "type": "transaction",
  "entry": [
    {
      "fullUrl": "https://madie.cms.gov/Patient/2abd13d2-81d0-4222-9dbb-f7535d3a51d5",
      "resource": {
        "resourceType": "Patient",
        "id": "2abd13d2-81d0-4222-9dbb-f7535d3a51d5",
        "meta": {
          "profile": [
            "http://hl7.org/fhir/us/qicore/StructureDefinition/qicore-patient"
          ]
        },
        "text": {
          "status": "generated",
          "div": "<div xmlns=\"http://www.w3.org/1999/xhtml\"><div class=\"hapiHeaderText\">LTE24before <b>CREATPASS </b></div><table class=\"hapiPropertyTable\"><tbody><tr><td>Identifier</td><td>f7053d5904ff43c96857e3f606716bbc2f99b5ab9c0c40826e6d339080f2947c</td></tr><tr><td>Date of birth</td><td><span>15 June 1956</span></td></tr></tbody></table></div>"
        },
        "extension": [
          {
            "url": "http://hl7.org/fhir/us/core/StructureDefinition/us-core-race",
            "extension": [
              {
                "url": "ombCategory",
                "valueCoding": {
                  "system": "urn:oid:2.16.840.1.113883.6.238",
                  "code": "2076-8",
                  "display": "Native Hawaiian or Other Pacific Islander",
                  "userSelected": true
                }
              },
              {
                "url": "text",
                "valueString": "Native Hawaiian or Other Pacific Islander"
              }
            ]
          },
          {
            "url": "http://hl7.org/fhir/us/core/StructureDefinition/us-core-ethnicity",
            "extension": [
              {
                "url": "ombCategory",
                "valueCoding": {
                  "system": "urn:oid:2.16.840.1.113883.6.238",
                  "code": "2186-5",
                  "display": "Not Hispanic or Latino",
                  "userSelected": true
                }
              },
              {
                "url": "text",
                "valueString": "Not Hispanic or Latino"
              }
            ]
          }
        ],
        "identifier": [
          {
            "type": {
              "coding": [
                {
                  "system": "http://terminology.hl7.org/CodeSystem/v2-0203",
                  "code": "MR"
                }
              ]
            },
            "system": "https://bonnie-fhir.healthit.gov/",
            "value": "63ec096cccb3770120fea178"
          }
        ],
        "active": true,
        "name": [
          {
            "use": "usual",
            "family": "CreatininePass",
            "given": [
              "PerformedXs4"
            ]
          }
        ],
        "gender": "female",
        "birthDate": "1960-07-01"
      },
      "request": {
        "method": "PUT",
        "url": "Patient/2abd13d2-81d0-4222-9dbb-f7535d3a51d5"
      }
    },
    {
      "fullUrl": "https://madie.cms.gov/Encounter/f33f0c39-ff9b-4b47-89fb-666d7d1d3af8",
      "resource": {
        "resourceType": "Encounter",
        "id": "f33f0c39-ff9b-4b47-89fb-666d7d1d3af8",
        "meta": {
          "profile": [
            "http://hl7.org/fhir/us/qicore/StructureDefinition/qicore-encounter"
          ]
        },
        "status": "finished",
        "class": {
          "system": "http://terminology.hl7.org/CodeSystem/v3-ActCode",
          "code": "ACUTE",
          "display": "Acute",
          "userSelected": true
        },
        "type": [
          {
            "coding": [
              {
                "system": "http://snomed.info/sct",
                "code": "183452005"
              }
            ]
          }
        ],
        "subject": {
          "reference": "Patient/2abd13d2-81d0-4222-9dbb-f7535d3a51d5"
        },
        "period": {
          "start": "2025-07-01T08:00:00.000+00:00",
          "end": "2025-07-05T08:15:00.000+00:00"
        },
        "length": {
          "value": 4,
          "unit": "days"
        }
      },
      "request": {
        "method": "PUT",
        "url": "Encounter/f33f0c39-ff9b-4b47-89fb-666d7d1d3af8"
      }
    },
    {
      "fullUrl": "https://madie.cms.gov/Coverage/52db89db-ac91-4339-91a9-a74e6234dc4a",
      "resource": {
        "resourceType": "Coverage",
        "id": "52db89db-ac91-4339-91a9-a74e6234dc4a",
        "meta": {
          "profile": [
            "http://hl7.org/fhir/us/qicore/StructureDefinition/qicore-coverage"
          ]
        },
        "status": "active",
        "type": {
          "coding": [
            {
              "system": "https://nahdo.org/sopt",
              "version": "1.0.1",
              "code": "1",
              "display": "Medicare payer",
              "userSelected": true
            }
          ]
        },
        "beneficiary": {
          "reference": "Patient/2abd13d2-81d0-4222-9dbb-f7535d3a51d5"
        },
        "payor": [
          {
            "reference": "Organization/803dcf5e-060c-4713-8f10-e9fe9be46de4"
          }
        ]
      },
      "request": {
        "method": "PUT",
        "url": "Coverage/52db89db-ac91-4339-91a9-a74e6234dc4a"
      }
    },
    {
      "fullUrl": "https://madie.cms.gov/Observation/617c50e8-22cc-400f-9795-f6b6aa755113",
      "resource": {
        "resourceType": "Observation",
        "id": "617c50e8-22cc-400f-9795-f6b6aa755113",
        "meta": {
          "profile": [
            "http://hl7.org/fhir/us/core/StructureDefinition/us-core-observation-lab"
          ]
        },
        "status": "final",
        "category": [
          {
            "coding": [
              {
                "system": "http://terminology.hl7.org/CodeSystem/observation-category",
                "code": "laboratory",
                "display": "laboratory",
                "userSelected": true
              }
            ]
          }
        ],
        "code": {
          "coding": [
            {
              "system": "http://loinc.org",
              "version": "2.69",
              "code": "14682-9",
              "display": "Creatinine [Moles/volume] in Serum or Plasma",
              "userSelected": true
            }
          ]
        },
        "subject": {
          "reference": "Patient/2abd13d2-81d0-4222-9dbb-f7535d3a51d5"
        },
        "issued": "2025-07-01T08:01:00.000+00:00",
        "valueQuantity": {
          "value": 1,
          "unit": "mg/dL",
          "system": "http://unitsofmeasure.org",
          "code": "mg/dL"
        }
      },
      "request": {
        "method": "PUT",
        "url": "Observation/617c50e8-22cc-400f-9795-f6b6aa755113"
      }
    },
    {
      "fullUrl": "https://madie.cms.gov/Observation/711dd1e9-1547-426c-bc4b-1d9d78a23aee",
      "resource": {
        "resourceType": "Observation",
        "id": "711dd1e9-1547-426c-bc4b-1d9d78a23aee",
        "meta": {
          "profile": [
            "http://hl7.org/fhir/us/core/StructureDefinition/us-core-observation-lab"
          ]
        },
        "status": "final",
        "category": [
          {
            "coding": [
              {
                "system": "http://terminology.hl7.org/CodeSystem/observation-category",
                "code": "laboratory",
                "display": "laboratory",
                "userSelected": true
              }
            ]
          }
        ],
        "code": {
          "coding": [
            {
              "system": "http://loinc.org",
              "version": "2.69",
              "code": "14682-9",
              "display": "Creatinine [Moles/volume] in Serum or Plasma",
              "userSelected": true
            }
          ]
        },
        "subject": {
          "reference": "Patient/2abd13d2-81d0-4222-9dbb-f7535d3a51d5"
        },
        "issued": "2025-07-02T08:00:00.000+00:00",
        "valueQuantity": {
          "value": 2,
          "unit": "mg/dL",
          "system": "http://unitsofmeasure.org",
          "code": "mg/dL"
        }
      },
      "request": {
        "method": "PUT",
        "url": "Observation/711dd1e9-1547-426c-bc4b-1d9d78a23aee"
      }
    },
    {
      "fullUrl": "https://madie.cms.gov/Observation/51155a07-99f1-432c-9728-7e982a6e9268",
      "resource": {
        "resourceType": "Observation",
        "id": "51155a07-99f1-432c-9728-7e982a6e9268",
        "meta": {
          "profile": [
            "http://hl7.org/fhir/us/core/StructureDefinition/us-core-observation-lab"
          ]
        },
        "status": "final",
        "category": [
          {
            "coding": [
              {
                "system": "http://terminology.hl7.org/CodeSystem/observation-category",
                "code": "laboratory",
                "display": "laboratory",
                "userSelected": true
              }
            ]
          }
        ],
        "code": {
          "coding": [
            {
              "system": "http://loinc.org",
              "version": "2.69",
              "code": "14682-9",
              "display": "Creatinine [Moles/volume] in Serum or Plasma",
              "userSelected": true
            }
          ]
        },
        "subject": {
          "reference": "Patient/2abd13d2-81d0-4222-9dbb-f7535d3a51d5"
        },
        "issued": "2025-07-03T20:00:00.000+00:00",
        "valueQuantity": {
          "value": 3,
          "unit": "mg/dL",
          "system": "http://unitsofmeasure.org",
          "code": "mg/dL"
        }
      },
      "request": {
        "method": "PUT",
        "url": "Observation/51155a07-99f1-432c-9728-7e982a6e9268"
      }
    },
    {
      "fullUrl": "https://madie.cms.gov/Observation/f3bcce88-3f47-4712-9fde-17eebd705a0f",
      "resource": {
        "resourceType": "Observation",
        "id": "f3bcce88-3f47-4712-9fde-17eebd705a0f",
        "meta": {
          "profile": [
            "http://hl7.org/fhir/us/core/StructureDefinition/us-core-observation-lab"
          ]
        },
        "status": "final",
        "category": [
          {
            "coding": [
              {
                "system": "http://terminology.hl7.org/CodeSystem/observation-category",
                "code": "laboratory",
                "display": "laboratory",
                "userSelected": true
              }
            ]
          }
        ],
        "code": {
          "coding": [
            {
              "system": "http://loinc.org",
              "version": "2.69",
              "code": "14682-9",
              "display": "Creatinine [Moles/volume] in Serum or Plasma",
              "userSelected": true
            }
          ]
        },
        "subject": {
          "reference": "Patient/2abd13d2-81d0-4222-9dbb-f7535d3a51d5"
        },
        "issued": "2025-07-04T08:00:00.000+00:00",
        "valueQuantity": {
          "value": 4,
          "unit": "mg/dL",
          "system": "http://unitsofmeasure.org",
          "code": "mg/dL"
        }
      },
      "request": {
        "method": "PUT",
        "url": "Observation/f3bcce88-3f47-4712-9fde-17eebd705a0f"
      }
    },
    {
      "fullUrl": "https://madie.cms.gov/Organization/803dcf5e-060c-4713-8f10-e9fe9be46de4",
      "resource": {
        "resourceType": "Organization",
        "id": "803dcf5e-060c-4713-8f10-e9fe9be46de4",
        "meta": {
          "profile": [
            "http://hl7.org/fhir/us/qicore/StructureDefinition/qicore-organization"
          ]
        },
        "identifier": [
          {
            "use": "temp",
            "system": "urn:oid:2.16.840.1.113883.4.4",
            "value": "21-3259825"
          }
        ],
        "active": true,
        "type": [
          {
            "coding": [
              {
                "system": "http://terminology.hl7.org/CodeSystem/organization-type",
                "code": "pay",
                "display": "Payer"
              }
            ]
          }
        ],
        "name": "Blue Cross Blue Shield of Texas",
        "telecom": [
          {
            "system": "phone",
            "value": "(+1) 972-766-6900"
          }
        ],
        "address": [
          {
            "use": "billing",
            "type": "postal",
            "line": [
              "P.O. Box 660044"
            ],
            "city": "Dallas",
            "state": "TX",
            "postalCode": "75266-0044",
            "country": "USA"
          }
        ]
      },
      "request": {
        "method": "PUT",
        "url": "Organization/803dcf5e-060c-4713-8f10-e9fe9be46de4"
      }
    },
    {
      "fullUrl": "https://madie.cms.gov/Practitioner/1225c8b6-23ee-4753-8981-fa23ab4b3a60",
      "resource": {
        "resourceType": "Practitioner",
        "id": "1225c8b6-23ee-4753-8981-fa23ab4b3a60",
        "meta": {
          "profile": [
            "http://hl7.org/fhir/us/qicore/StructureDefinition/qicore-practitioner"
          ]
        },
        "identifier": [
          {
            "system": "http://hl7.org/fhir/sid/us-npi",
            "value": "123456"
          }
        ],
        "name": [
          {
            "family": "Evil",
            "prefix": [
              "Dr"
            ]
          }
        ]
      },
      "request": {
        "method": "PUT",
        "url": "Practitioner/1225c8b6-23ee-4753-8981-fa23ab4b3a60"
      }
    },
    {
      "fullUrl": "https://madie.cms.gov/MeasureReport/73e3eda1-bb38-469a-b282-a739c89fa9aa",
      "resource": {
        "resourceType": "MeasureReport",
        "id": "73e3eda1-bb38-469a-b282-a739c89fa9aa",
        "meta": {
          "profile": [
            "http://hl7.org/fhir/us/cqfmeasures/StructureDefinition/test-case-cqfm"
          ]
        },
        "contained": [
          {
            "resourceType": "Parameters",
            "id": "7cdb7a47-9054-4e9d-b5d4-d5e2085b495e-parameters",
            "parameter": [
              {
                "name": "subject",
                "valueString": "2abd13d2-81d0-4222-9dbb-f7535d3a51d5"
              }
            ]
          }
        ],
        "extension": [
          {
            "url": "http://hl7.org/fhir/us/cqfmeasures/StructureDefinition/cqfm-inputParameters",
            "valueReference": {
              "reference": "#7cdb7a47-9054-4e9d-b5d4-d5e2085b495e-parameters"
            }
          },
          {
            "url": "http://hl7.org/fhir/us/cqfmeasures/StructureDefinition/cqfm-testCaseDescription",
            "valueMarkdown": "Enc starts first day of MP (7/1) lasts for 4 days; patient has Medicare, age 65 today,  creatinine 1 minute after admission and again at 24 hrs , 36, and 48  hrs after admission, only the first one is included. "
          }
        ],
        "modifierExtension": [
          {
            "url": "http://hl7.org/fhir/us/cqfmeasures/StructureDefinition/cqfm-isTestCase",
            "valueBoolean": true
          }
        ],
        "status": "complete",
        "type": "individual",
        "measure": "https://madie.cms.gov/Measure/HybridHospitalWideMortalityFHIR",
        "period": {
          "start": "2025-07-01",
          "end": "2026-06-30"
        },
        "group": [
          {
            "population": [
              {
                "code": {
                  "coding": [
                    {
                      "system": "http://terminology.hl7.org/CodeSystem/measure-population",
                      "code": "initial-population",
                      "display": "Initial Population"
                    }
                  ]
                },
                "count": 1
              }
            ]
          }
        ],
        "evaluatedResource": [
          {
            "reference": "Patient/2abd13d2-81d0-4222-9dbb-f7535d3a51d5"
          },
          {
            "reference": "Encounter/f33f0c39-ff9b-4b47-89fb-666d7d1d3af8"
          },
          {
            "reference": "Coverage/52db89db-ac91-4339-91a9-a74e6234dc4a"
          },
          {
            "reference": "Observation/617c50e8-22cc-400f-9795-f6b6aa755113"
          },
          {
            "reference": "Observation/711dd1e9-1547-426c-bc4b-1d9d78a23aee"
          },
          {
            "reference": "Observation/51155a07-99f1-432c-9728-7e982a6e9268"
          },
          {
            "reference": "Observation/f3bcce88-3f47-4712-9fde-17eebd705a0f"
          },
          {
            "reference": "Organization/803dcf5e-060c-4713-8f10-e9fe9be46de4"
          },
          {
            "reference": "Practitioner/1225c8b6-23ee-4753-8981-fa23ab4b3a60"
          }
        ]
      },
      "request": {
        "method": "PUT",
        "url": "MeasureReport/73e3eda1-bb38-469a-b282-a739c89fa9aa"
      }
    }
  ]
}