{
  "resourceType": "Bundle",
  "id": "63ec096bccb3770120fea0ad",
  "type": "transaction",
  "entry": [
    {
      "fullUrl": "https://madie.cms.gov/Patient/ec665889-912d-4399-a535-7490c89dfaaf",
      "resource": {
        "resourceType": "Patient",
        "id": "ec665889-912d-4399-a535-7490c89dfaaf",
        "meta": {
          "profile": [
            "http://hl7.org/fhir/us/qicore/StructureDefinition/qicore-patient"
          ]
        },
        "text": {
          "status": "generated",
          "div": "<div xmlns=\"http://www.w3.org/1999/xhtml\"><div class=\"hapiHeaderText\">NoResult <b>SODIUMFAIL </b></div><table class=\"hapiPropertyTable\"><tbody><tr><td>Identifier</td><td>eb360e3679224871964d5b3575a59ceb3c2f6260372fb1be3ea61ac84d2937cf</td></tr><tr><td>Date of birth</td><td><span>15 June 1956</span></td></tr></tbody></table></div>"
        },
        "extension": [
          {
            "url": "http://hl7.org/fhir/us/core/StructureDefinition/us-core-race",
            "extension": [
              {
                "url": "ombCategory",
                "valueCoding": {
                  "system": "urn:oid:2.16.840.1.113883.6.238",
                  "code": "1002-5",
                  "display": "American Indian or Alaska Native",
                  "userSelected": true
                }
              },
              {
                "url": "text",
                "valueString": "American Indian or Alaska Native"
              }
            ]
          },
          {
            "url": "http://hl7.org/fhir/us/core/StructureDefinition/us-core-ethnicity",
            "extension": [
              {
                "url": "ombCategory",
                "valueCoding": {
                  "system": "urn:oid:2.16.840.1.113883.6.238",
                  "code": "2186-5",
                  "display": "Not Hispanic or Latino",
                  "userSelected": true
                }
              },
              {
                "url": "text",
                "valueString": "Not Hispanic or Latino"
              }
            ]
          }
        ],
        "identifier": [
          {
            "type": {
              "coding": [
                {
                  "system": "http://terminology.hl7.org/CodeSystem/v2-0203",
                  "code": "MR"
                }
              ]
            },
            "system": "https://bonnie-fhir.healthit.gov/",
            "value": "63ec096bccb3770120fea0ad"
          }
        ],
        "active": true,
        "name": [
          {
            "use": "usual",
            "family": "EachPerformedInSeparateEncounters",
            "given": [
              "AllExamsPass"
            ]
          }
        ],
        "gender": "male",
        "birthDate": "1959-07-01"
      },
      "request": {
        "method": "PUT",
        "url": "Patient/ec665889-912d-4399-a535-7490c89dfaaf"
      }
    },
    {
      "fullUrl": "https://madie.cms.gov/Encounter/76ebabcd-5e76-4156-91ea-6fc61e4fc60e",
      "resource": {
        "resourceType": "Encounter",
        "id": "76ebabcd-5e76-4156-91ea-6fc61e4fc60e",
        "meta": {
          "profile": [
            "http://hl7.org/fhir/us/qicore/StructureDefinition/qicore-encounter"
          ]
        },
        "status": "finished",
        "class": {
          "system": "http://terminology.hl7.org/CodeSystem/v3-ActCode",
          "code": "IMP",
          "display": "inpatient encounter",
          "userSelected": true
        },
        "type": [
          {
            "coding": [
              {
                "system": "http://snomed.info/sct",
                "code": "183452005"
              }
            ]
          }
        ],
        "subject": {
          "reference": "Patient/ec665889-912d-4399-a535-7490c89dfaaf"
        },
        "period": {
          "start": "2025-07-01T12:01:00.000+00:00",
          "end": "2025-07-04T08:15:00.000+00:00"
        }
      },
      "request": {
        "method": "PUT",
        "url": "Encounter/76ebabcd-5e76-4156-91ea-6fc61e4fc60e"
      }
    },
    {
      "fullUrl": "https://madie.cms.gov/Encounter/76ebabcd-5e76-4156-91ea-6fc61e4fc60e1",
      "resource": {
        "resourceType": "Encounter",
        "id": "76ebabcd-5e76-4156-91ea-6fc61e4fc60e1",
        "meta": {
          "profile": [
            "http://hl7.org/fhir/us/qicore/StructureDefinition/qicore-encounter"
          ]
        },
        "status": "finished",
        "class": {
          "system": "http://terminology.hl7.org/CodeSystem/v3-ActCode",
          "code": "IMP",
          "display": "inpatient encounter",
          "userSelected": true
        },
        "type": [
          {
            "coding": [
              {
                "system": "http://snomed.info/sct",
                "code": "183452005",
                "display": "Emergency hospital admission (procedure)"
              }
            ]
          }
        ],
        "subject": {
          "reference": "Patient/ec665889-912d-4399-a535-7490c89dfaaf"
        },
        "period": {
          "start": "2025-12-31T12:01:00.000+00:00",
          "end": "2026-01-03T10:00:00.000+00:00"
        }
      },
      "request": {
        "method": "PUT",
        "url": "Encounter/76ebabcd-5e76-4156-91ea-6fc61e4fc60e1"
      }
    },
    {
      "fullUrl": "https://madie.cms.gov/Observation/5f3997d4-d6c1-406e-bdd7-88ad55bf2358",
      "resource": {
        "resourceType": "Observation",
        "id": "5f3997d4-d6c1-406e-bdd7-88ad55bf2358",
        "meta": {
          "profile": [
            "http://hl7.org/fhir/us/qicore/StructureDefinition/qicore-observation"
          ]
        },
        "status": "final",
        "category": [
          {
            "coding": [
              {
                "system": "http://terminology.hl7.org/CodeSystem/observation-category",
                "code": "vital-signs",
                "display": "Vital Signs",
                "userSelected": true
              }
            ]
          }
        ],
        "code": {
          "coding": [
            {
              "system": "http://loinc.org",
              "code": "59408-5",
              "display": "Oxygen saturation in Arterial blood by Pulse oximetry"
            }
          ]
        },
        "subject": {
          "reference": "Patient/ec665889-912d-4399-a535-7490c89dfaaf"
        },
        "effectiveDateTime": "2025-12-31T12:01:00.000+00:00",
        "valueQuantity": {
          "value": 98,
          "unit": "%",
          "system": "http://unitsofmeasure.org",
          "code": "%"
        }
      },
      "request": {
        "method": "PUT",
        "url": "Observation/5f3997d4-d6c1-406e-bdd7-88ad55bf2358"
      }
    },
    {
      "fullUrl": "https://madie.cms.gov/Encounter/76ebabcd-5e76-4156-91ea-6fc61e4fc60e2",
      "resource": {
        "resourceType": "Encounter",
        "id": "76ebabcd-5e76-4156-91ea-6fc61e4fc60e2",
        "meta": {
          "profile": [
            "http://hl7.org/fhir/us/qicore/StructureDefinition/qicore-encounter"
          ]
        },
        "status": "finished",
        "class": {
          "system": "http://terminology.hl7.org/CodeSystem/v3-ActCode",
          "code": "IMP",
          "display": "inpatient encounter",
          "userSelected": true
        },
        "type": [
          {
            "coding": [
              {
                "system": "http://snomed.info/sct",
                "code": "32485007",
                "display": "Hospital admission (procedure)"
              }
            ]
          }
        ],
        "subject": {
          "reference": "Patient/ec665889-912d-4399-a535-7490c89dfaaf"
        },
        "period": {
          "start": "2026-01-04T08:00:00.000+00:00",
          "end": "2026-01-08T08:15:00.000+00:00"
        }
      },
      "request": {
        "method": "PUT",
        "url": "Encounter/76ebabcd-5e76-4156-91ea-6fc61e4fc60e2"
      }
    },
    {
      "fullUrl": "https://madie.cms.gov/Encounter/76ebabcd-5e76-4156-91ea-6fc61e4fc60e3",
      "resource": {
        "resourceType": "Encounter",
        "id": "76ebabcd-5e76-4156-91ea-6fc61e4fc60e3",
        "meta": {
          "profile": [
            "http://hl7.org/fhir/us/qicore/StructureDefinition/qicore-encounter"
          ]
        },
        "status": "finished",
        "class": {
          "system": "http://terminology.hl7.org/CodeSystem/v3-ActCode",
          "code": "EMER",
          "display": "emergency",
          "userSelected": true
        },
        "type": [
          {
            "coding": [
              {
                "system": "http://snomed.info/sct",
                "code": "4525004",
                "display": "Emergency department patient visit (procedure)"
              }
            ]
          }
        ],
        "subject": {
          "reference": "Patient/ec665889-912d-4399-a535-7490c89dfaaf"
        },
        "period": {
          "start": "2026-06-27T04:00:00.000+00:00",
          "end": "2026-06-27T15:30:00.000+00:00"
        }
      },
      "request": {
        "method": "PUT",
        "url": "Encounter/76ebabcd-5e76-4156-91ea-6fc61e4fc60e3"
      }
    },
    {
      "fullUrl": "https://madie.cms.gov/Encounter/76ebabcd-5e76-4156-91ea-6fc61e4fc60e4",
      "resource": {
        "resourceType": "Encounter",
        "id": "76ebabcd-5e76-4156-91ea-6fc61e4fc60e4",
        "meta": {
          "profile": [
            "http://hl7.org/fhir/us/qicore/StructureDefinition/qicore-encounter"
          ]
        },
        "status": "finished",
        "class": {
          "system": "http://terminology.hl7.org/CodeSystem/v3-ActCode",
          "code": "IMP",
          "display": "inpatient encounter",
          "userSelected": true
        },
        "type": [
          {
            "coding": [
              {
                "system": "http://snomed.info/sct",
                "code": "183452005",
                "display": "Emergency hospital admission (procedure)"
              }
            ]
          }
        ],
        "subject": {
          "reference": "Patient/ec665889-912d-4399-a535-7490c89dfaaf"
        },
        "period": {
          "start": "2026-06-27T15:30:00.000+00:00",
          "end": "2026-06-30T08:23:59.000+00:00"
        }
      },
      "request": {
        "method": "PUT",
        "url": "Encounter/76ebabcd-5e76-4156-91ea-6fc61e4fc60e4"
      }
    },
    {
      "fullUrl": "https://madie.cms.gov/Observation/d0c76374-f6f4-4843-8f88-06f6264fa2a2",
      "resource": {
        "resourceType": "Observation",
        "id": "d0c76374-f6f4-4843-8f88-06f6264fa2a2",
        "meta": {
          "profile": [
            "http://hl7.org/fhir/StructureDefinition/heartrate"
          ]
        },
        "status": "final",
        "category": [
          {
            "coding": [
              {
                "system": "http://terminology.hl7.org/CodeSystem/observation-category",
                "code": "vital-signs",
                "display": "Vital Signs",
                "userSelected": true
              }
            ]
          }
        ],
        "code": {
          "coding": [
            {
              "system": "http://loinc.org",
              "code": "8867-4",
              "display": "Heart rate"
            }
          ]
        },
        "subject": {
          "reference": "Patient/ec665889-912d-4399-a535-7490c89dfaaf"
        },
        "effectiveDateTime": "2026-01-04T08:00:00.000+00:00",
        "valueQuantity": {
          "value": 130,
          "unit": "/min",
          "system": "http://unitsofmeasure.org",
          "code": "/min"
        }
      },
      "request": {
        "method": "PUT",
        "url": "Observation/d0c76374-f6f4-4843-8f88-06f6264fa2a2"
      }
    },
    {
      "fullUrl": "https://madie.cms.gov/Observation/5704a9c7-95a7-4cdd-a4db-1e00acefb81c",
      "resource": {
        "resourceType": "Observation",
        "id": "5704a9c7-95a7-4cdd-a4db-1e00acefb81c",
        "meta": {
          "profile": [
            "http://hl7.org/fhir/StructureDefinition/bp"
          ]
        },
        "status": "final",
        "category": [
          {
            "coding": [
              {
                "system": "http://terminology.hl7.org/CodeSystem/observation-category",
                "code": "vital-signs",
                "display": "Vital Signs"
              }
            ],
            "text": "Vital Signs"
          }
        ],
        "code": {
          "coding": [
            {
              "system": "http://loinc.org",
              "code": "85354-9",
              "display": "Blood pressure panel"
            }
          ]
        },
        "subject": {
          "reference": "Patient/ec665889-912d-4399-a535-7490c89dfaaf"
        },
        "effectiveDateTime": "2025-06-30T13:00:00.000+00:00",
        "component": [
          {
            "code": {
              "coding": [
                {
                  "system": "http://loinc.org",
                  "code": "8480-6",
                  "display": "Systolic blood pressure"
                }
              ]
            },
            "valueQuantity": {
              "value": 131,
              "unit": "mmHg",
              "system": "http://unitsofmeasure.org",
              "code": "mm[Hg]"
            }
          },
          {
            "code": {
              "coding": [
                {
                  "system": "http://loinc.org",
                  "code": "8462-4",
                  "display": "Diastolic blood pressure"
                }
              ]
            },
            "valueQuantity": {
              "value": 80,
              "unit": "mmHg",
              "system": "http://unitsofmeasure.org",
              "code": "mm[Hg]"
            }
          }
        ]
      },
      "request": {
        "method": "PUT",
        "url": "Observation/5704a9c7-95a7-4cdd-a4db-1e00acefb81c"
      }
    },
    {
      "fullUrl": "https://madie.cms.gov/Observation/5ce64047-13f8-4a94-8b90-c74ffadd0816",
      "resource": {
        "resourceType": "Observation",
        "id": "5ce64047-13f8-4a94-8b90-c74ffadd0816",
        "meta": {
          "profile": [
            "http://hl7.org/fhir/StructureDefinition/bodytemp"
          ]
        },
        "status": "amended",
        "category": [
          {
            "coding": [
              {
                "system": "http://terminology.hl7.org/CodeSystem/observation-category",
                "code": "vital-signs",
                "display": "Vital Signs",
                "userSelected": true
              }
            ]
          }
        ],
        "code": {
          "coding": [
            {
              "system": "http://loinc.org",
              "code": "8310-5",
              "display": "Body temperature"
            }
          ]
        },
        "subject": {
          "reference": "Patient/ec665889-912d-4399-a535-7490c89dfaaf"
        },
        "effectiveDateTime": "2026-06-27T15:30:00.000+00:00",
        "valueQuantity": {
          "value": 98.6,
          "unit": "[degF]",
          "system": "http://unitsofmeasure.org",
          "code": "[degF]"
        }
      },
      "request": {
        "method": "PUT",
        "url": "Observation/5ce64047-13f8-4a94-8b90-c74ffadd0816"
      }
    },
    {
      "fullUrl": "https://madie.cms.gov/Coverage/1c69e658-9946-4a61-99e4-2bbc0c38b973",
      "resource": {
        "resourceType": "Coverage",
        "id": "1c69e658-9946-4a61-99e4-2bbc0c38b973",
        "meta": {
          "profile": [
            "http://hl7.org/fhir/us/qicore/StructureDefinition/qicore-coverage"
          ]
        },
        "status": "active",
        "type": {
          "coding": [
            {
              "system": "https://nahdo.org/sopt",
              "version": "1.0.1",
              "code": "1",
              "display": "Medicare payer",
              "userSelected": true
            }
          ]
        },
        "beneficiary": {
          "reference": "Patient/ec665889-912d-4399-a535-7490c89dfaaf"
        },
        "payor": [
          {
            "reference": "Organization/7179e88d-8421-4965-8a2a-753d7319fed9"
          }
        ]
      },
      "request": {
        "method": "PUT",
        "url": "Coverage/1c69e658-9946-4a61-99e4-2bbc0c38b973"
      }
    },
    {
      "fullUrl": "https://madie.cms.gov/Organization/7179e88d-8421-4965-8a2a-753d7319fed9",
      "resource": {
        "resourceType": "Organization",
        "id": "7179e88d-8421-4965-8a2a-753d7319fed9",
        "meta": {
          "profile": [
            "http://hl7.org/fhir/us/qicore/StructureDefinition/qicore-organization"
          ]
        },
        "identifier": [
          {
            "use": "temp",
            "system": "urn:oid:2.16.840.1.113883.4.4",
            "value": "21-3259825"
          }
        ],
        "active": true,
        "type": [
          {
            "coding": [
              {
                "system": "http://terminology.hl7.org/CodeSystem/organization-type",
                "code": "pay",
                "display": "Payer"
              }
            ]
          }
        ],
        "name": "Blue Cross Blue Shield of Texas",
        "telecom": [
          {
            "system": "phone",
            "value": "(+1) 972-766-6900"
          }
        ],
        "address": [
          {
            "use": "billing",
            "type": "postal",
            "line": [
              "P.O. Box 660044"
            ],
            "city": "Dallas",
            "state": "TX",
            "postalCode": "75266-0044",
            "country": "USA"
          }
        ]
      },
      "request": {
        "method": "PUT",
        "url": "Organization/7179e88d-8421-4965-8a2a-753d7319fed9"
      }
    },
    {
      "fullUrl": "https://madie.cms.gov/Practitioner/9d2d8473-b569-4a5f-be01-aa285c35dafe",
      "resource": {
        "resourceType": "Practitioner",
        "id": "9d2d8473-b569-4a5f-be01-aa285c35dafe",
        "meta": {
          "profile": [
            "http://hl7.org/fhir/us/qicore/StructureDefinition/qicore-practitioner"
          ]
        },
        "identifier": [
          {
            "system": "http://hl7.org/fhir/sid/us-npi",
            "value": "123456"
          }
        ],
        "name": [
          {
            "family": "Evil",
            "prefix": [
              "Dr"
            ]
          }
        ]
      },
      "request": {
        "method": "PUT",
        "url": "Practitioner/9d2d8473-b569-4a5f-be01-aa285c35dafe"
      }
    },
    {
      "fullUrl": "https://madie.cms.gov/MeasureReport/0b5097a5-0c9d-41dd-b5da-98b26127f70c",
      "resource": {
        "resourceType": "MeasureReport",
        "id": "0b5097a5-0c9d-41dd-b5da-98b26127f70c",
        "meta": {
          "profile": [
            "http://hl7.org/fhir/us/cqfmeasures/StructureDefinition/test-case-cqfm"
          ]
        },
        "contained": [
          {
            "resourceType": "Parameters",
            "id": "487c31d8-e4a8-4439-8d99-f30a451d2ae5-parameters",
            "parameter": [
              {
                "name": "subject",
                "valueString": "ec665889-912d-4399-a535-7490c89dfaaf"
              }
            ]
          }
        ],
        "extension": [
          {
            "url": "http://hl7.org/fhir/us/cqfmeasures/StructureDefinition/cqfm-inputParameters",
            "valueReference": {
              "reference": "#487c31d8-e4a8-4439-8d99-f30a451d2ae5-parameters"
            }
          },
          {
            "url": "http://hl7.org/fhir/us/cqfmeasures/StructureDefinition/cqfm-testCaseDescription",
            "valueMarkdown": "Enc. 1: starts 1st day of MP (7/1), has Medicare and is 65 today, SBP\nEnc. 2: starts last day of CY, O2 sats  98%\nEnc. 3: starts 4th day of following year, heart rate\nEnc. 4: Surgery then inpatient, ends last day of MP (6/30),  temperature  \n "
          }
        ],
        "modifierExtension": [
          {
            "url": "http://hl7.org/fhir/us/cqfmeasures/StructureDefinition/cqfm-isTestCase",
            "valueBoolean": true
          }
        ],
        "status": "complete",
        "type": "individual",
        "measure": "https://madie.cms.gov/Measure/HybridHospitalWideMortalityFHIR",
        "period": {
          "start": "2025-07-01",
          "end": "2026-06-30"
        },
        "group": [
          {
            "population": [
              {
                "code": {
                  "coding": [
                    {
                      "system": "http://terminology.hl7.org/CodeSystem/measure-population",
                      "code": "initial-population",
                      "display": "Initial Population"
                    }
                  ]
                },
                "count": 4
              }
            ]
          }
        ],
        "evaluatedResource": [
          {
            "reference": "Patient/ec665889-912d-4399-a535-7490c89dfaaf"
          },
          {
            "reference": "Encounter/76ebabcd-5e76-4156-91ea-6fc61e4fc60e"
          },
          {
            "reference": "Encounter/76ebabcd-5e76-4156-91ea-6fc61e4fc60e1"
          },
          {
            "reference": "Observation/5f3997d4-d6c1-406e-bdd7-88ad55bf2358"
          },
          {
            "reference": "Encounter/76ebabcd-5e76-4156-91ea-6fc61e4fc60e2"
          },
          {
            "reference": "Encounter/76ebabcd-5e76-4156-91ea-6fc61e4fc60e3"
          },
          {
            "reference": "Encounter/76ebabcd-5e76-4156-91ea-6fc61e4fc60e4"
          },
          {
            "reference": "Observation/d0c76374-f6f4-4843-8f88-06f6264fa2a2"
          },
          {
            "reference": "Observation/5704a9c7-95a7-4cdd-a4db-1e00acefb81c"
          },
          {
            "reference": "Observation/5ce64047-13f8-4a94-8b90-c74ffadd0816"
          },
          {
            "reference": "Coverage/1c69e658-9946-4a61-99e4-2bbc0c38b973"
          },
          {
            "reference": "Organization/7179e88d-8421-4965-8a2a-753d7319fed9"
          },
          {
            "reference": "Practitioner/9d2d8473-b569-4a5f-be01-aa285c35dafe"
          }
        ]
      },
      "request": {
        "method": "PUT",
        "url": "MeasureReport/0b5097a5-0c9d-41dd-b5da-98b26127f70c"
      }
    }
  ]
}