{
  "resourceType": "Bundle",
  "id": "633b3f9e0968f80122503cc4",
  "type": "transaction",
  "entry": [
    {
      "fullUrl": "https://madie.cms.gov/Patient/08cc0224-ec8b-4a95-8beb-c58e91a20a48",
      "resource": {
        "resourceType": "Patient",
        "id": "08cc0224-ec8b-4a95-8beb-c58e91a20a48",
        "meta": {
          "profile": [
            "http://hl7.org/fhir/us/qicore/StructureDefinition/qicore-patient"
          ]
        },
        "text": {
          "status": "generated",
          "div": "<div xmlns=\"http://www.w3.org/1999/xhtml\"><div class=\"hapiHeaderText\">DelProcStart=EncStartPlus1Min <b>IPPASS </b></div><table class=\"hapiPropertyTable\"><tbody><tr><td>Date of birth</td><td><span>31 January 2004</span></td></tr></tbody></table></div>"
        },
        "extension": [
          {
            "url": "http://hl7.org/fhir/us/core/StructureDefinition/us-core-race",
            "extension": [
              {
                "url": "ombCategory",
                "valueCoding": {
                  "system": "urn:oid:2.16.840.1.113883.6.238",
                  "code": "1002-5",
                  "display": "American Indian or Alaska Native",
                  "userSelected": true
                }
              },
              {
                "url": "text",
                "valueString": "American Indian or Alaska Native"
              }
            ]
          },
          {
            "url": "http://hl7.org/fhir/us/core/StructureDefinition/us-core-ethnicity",
            "extension": [
              {
                "url": "ombCategory",
                "valueCoding": {
                  "system": "urn:oid:2.16.840.1.113883.6.238",
                  "code": "2135-2",
                  "display": "Hispanic or Latino",
                  "userSelected": true
                }
              },
              {
                "url": "text",
                "valueString": "Hispanic or Latino"
              }
            ]
          }
        ],
        "identifier": [
          {
            "type": {
              "coding": [
                {
                  "system": "http://terminology.hl7.org/CodeSystem/v2-0203",
                  "code": "MR"
                }
              ]
            },
            "system": "https://bonnie-fhir.healthit.gov/",
            "value": "633b3f9e0968f80122503cc4"
          }
        ],
        "active": true,
        "name": [
          {
            "use": "usual",
            "family": "IPPass",
            "given": [
              "DelProcStart_EncStartPlus1Min"
            ]
          }
        ],
        "gender": "female",
        "birthDate": "2004-01-31"
      },
      "request": {
        "method": "PUT",
        "url": "Patient/08cc0224-ec8b-4a95-8beb-c58e91a20a48"
      }
    },
    {
      "fullUrl": "https://madie.cms.gov/Encounter/8740dd83-6dbc-4921-91e8-30c8bcad9432",
      "resource": {
        "resourceType": "Encounter",
        "id": "8740dd83-6dbc-4921-91e8-30c8bcad9432",
        "meta": {
          "profile": [
            "http://hl7.org/fhir/us/qicore/StructureDefinition/qicore-encounter"
          ]
        },
        "status": "finished",
        "class": {
          "system": "http://terminology.hl7.org/CodeSystem/v3-ActCode",
          "code": "IMP",
          "display": "inpatient encounter"
        },
        "type": [
          {
            "coding": [
              {
                "system": "http://snomed.info/sct",
                "code": "183452005"
              }
            ]
          }
        ],
        "subject": {
          "reference": "Patient/08cc0224-ec8b-4a95-8beb-c58e91a20a48"
        },
        "period": {
          "start": "2024-02-01T08:00:00.000Z",
          "end": "2024-02-05T08:15:00.000Z"
        }
      },
      "request": {
        "method": "PUT",
        "url": "Encounter/8740dd83-6dbc-4921-91e8-30c8bcad9432"
      }
    },
    {
      "fullUrl": "https://madie.cms.gov/Procedure/189b4c7a-3420-40a6-91a7-401c77758408",
      "resource": {
        "resourceType": "Procedure",
        "id": "189b4c7a-3420-40a6-91a7-401c77758408",
        "meta": {
          "profile": [
            "http://hl7.org/fhir/us/qicore/StructureDefinition/qicore-procedure"
          ]
        },
        "extension": [
          {
            "url": "http://hl7.org/fhir/us/qicore/StructureDefinition/qicore-recorded",
            "valueDateTime": "2013-04-05T09:35:00-04:00"
          }
        ],
        "status": "completed",
        "code": {
          "coding": [
            {
              "system": "http://snomed.info/sct",
              "code": "10745001"
            }
          ]
        },
        "subject": {
          "reference": "Patient/08cc0224-ec8b-4a95-8beb-c58e91a20a48"
        },
        "performedPeriod": {
          "start": "2024-02-01T08:01:00.000Z",
          "end": "2024-02-05T08:15:00.000Z"
        }
      },
      "request": {
        "method": "PUT",
        "url": "Procedure/189b4c7a-3420-40a6-91a7-401c77758408"
      }
    },
    {
      "fullUrl": "https://madie.cms.gov/Coverage/36d22f2c-2be3-4c78-b165-77aa3a7b5b32",
      "resource": {
        "resourceType": "Coverage",
        "id": "36d22f2c-2be3-4c78-b165-77aa3a7b5b32",
        "meta": {
          "profile": [
            "http://hl7.org/fhir/us/qicore/StructureDefinition/qicore-coverage"
          ]
        },
        "status": "active",
        "beneficiary": {
          "reference": "Patient/08cc0224-ec8b-4a95-8beb-c58e91a20a48"
        },
        "payor": [
          {
            "reference": "Organization/6c451a88-aea3-46af-a86c-7a84baa7f98e"
          }
        ]
      },
      "request": {
        "method": "PUT",
        "url": "Coverage/36d22f2c-2be3-4c78-b165-77aa3a7b5b32"
      }
    },
    {
      "fullUrl": "https://madie.cms.gov/Organization/6c451a88-aea3-46af-a86c-7a84baa7f98e",
      "resource": {
        "resourceType": "Organization",
        "id": "6c451a88-aea3-46af-a86c-7a84baa7f98e",
        "meta": {
          "profile": [
            "http://hl7.org/fhir/us/qicore/StructureDefinition/qicore-organization"
          ]
        },
        "identifier": [
          {
            "use": "temp",
            "system": "urn:oid:2.16.840.1.113883.4.4",
            "value": "21-3259825"
          }
        ],
        "active": true,
        "type": [
          {
            "coding": [
              {
                "system": "http://terminology.hl7.org/CodeSystem/organization-type",
                "code": "pay",
                "display": "Payer"
              }
            ]
          }
        ],
        "name": "Blue Cross Blue Shield of Texas",
        "telecom": [
          {
            "system": "phone",
            "value": "(+1) 972-766-6900"
          }
        ],
        "address": [
          {
            "use": "billing",
            "type": "postal",
            "line": [
              "P.O. Box 660044"
            ],
            "city": "Dallas",
            "state": "TX",
            "postalCode": "75266-0044",
            "country": "USA"
          }
        ]
      },
      "request": {
        "method": "PUT",
        "url": "Organization/6c451a88-aea3-46af-a86c-7a84baa7f98e"
      }
    },
    {
      "fullUrl": "https://madie.cms.gov/Practitioner/83355141-5712-4fe8-ac28-3758a6c2e457",
      "resource": {
        "resourceType": "Practitioner",
        "id": "83355141-5712-4fe8-ac28-3758a6c2e457",
        "identifier": [
          {
            "system": "http://hl7.org/fhir/sid/us-npi",
            "value": "123456"
          }
        ],
        "name": [
          {
            "family": "Evil",
            "prefix": [
              "Dr"
            ]
          }
        ]
      },
      "request": {
        "method": "PUT",
        "url": "Practitioner/83355141-5712-4fe8-ac28-3758a6c2e457"
      }
    },
    {
      "fullUrl": "https://madie.cms.gov/MeasureReport/d35ec84c-78c6-41ac-8b7c-469b71519ae6",
      "resource": {
        "resourceType": "MeasureReport",
        "id": "d35ec84c-78c6-41ac-8b7c-469b71519ae6",
        "meta": {
          "profile": [
            "http://hl7.org/fhir/us/cqfmeasures/StructureDefinition/test-case-cqfm"
          ]
        },
        "contained": [
          {
            "resourceType": "Parameters",
            "id": "270982b9-91f6-4e70-a942-51e0f3626f6c-parameters",
            "parameter": [
              {
                "name": "subject",
                "valueString": "08cc0224-ec8b-4a95-8beb-c58e91a20a48"
              }
            ]
          }
        ],
        "extension": [
          {
            "url": "http://hl7.org/fhir/us/cqfmeasures/StructureDefinition/cqfm-inputParameters",
            "valueReference": {
              "reference": "#270982b9-91f6-4e70-a942-51e0f3626f6c-parameters"
            }
          },
          {
            "url": "http://hl7.org/fhir/us/cqfmeasures/StructureDefinition/cqfm-testCaseDescription",
            "valueMarkdown": "Delivery procedure start equals encounter start plus 1 minute.\n"
          }
        ],
        "modifierExtension": [
          {
            "url": "http://hl7.org/fhir/us/cqfmeasures/StructureDefinition/cqfm-isTestCase",
            "valueBoolean": true
          }
        ],
        "status": "complete",
        "type": "individual",
        "measure": "https://madie.cms.gov/Measure/SevereObstetricComplicationsFHIR",
        "period": {
          "start": "2024-01-01",
          "end": "2024-12-31"
        },
        "group": [
          {
            "population": [
              {
                "code": {
                  "coding": [
                    {
                      "system": "http://terminology.hl7.org/CodeSystem/measure-population",
                      "code": "initial-population",
                      "display": "Initial Population"
                    }
                  ]
                },
                "count": 1
              },
              {
                "code": {
                  "coding": [
                    {
                      "system": "http://terminology.hl7.org/CodeSystem/measure-population",
                      "code": "denominator",
                      "display": "Denominator"
                    }
                  ]
                },
                "count": 0
              },
              {
                "code": {
                  "coding": [
                    {
                      "system": "http://terminology.hl7.org/CodeSystem/measure-population",
                      "code": "denominator-exclusion",
                      "display": "Denominator Exclusion"
                    }
                  ]
                },
                "count": 0
              },
              {
                "code": {
                  "coding": [
                    {
                      "system": "http://terminology.hl7.org/CodeSystem/measure-population",
                      "code": "numerator",
                      "display": "Numerator"
                    }
                  ]
                },
                "count": 0
              }
            ]
          }
        ],
        "evaluatedResource": [
          {
            "reference": "Patient/08cc0224-ec8b-4a95-8beb-c58e91a20a48"
          },
          {
            "reference": "Encounter/8740dd83-6dbc-4921-91e8-30c8bcad9432"
          },
          {
            "reference": "Procedure/189b4c7a-3420-40a6-91a7-401c77758408"
          },
          {
            "reference": "Coverage/36d22f2c-2be3-4c78-b165-77aa3a7b5b32"
          },
          {
            "reference": "Organization/6c451a88-aea3-46af-a86c-7a84baa7f98e"
          },
          {
            "reference": "Practitioner/83355141-5712-4fe8-ac28-3758a6c2e457"
          }
        ]
      },
      "request": {
        "method": "PUT",
        "url": "MeasureReport/d35ec84c-78c6-41ac-8b7c-469b71519ae6"
      }
    }
  ]
}