{"resourceType":"Bundle","id":"tests-38f9d5ed-c1bd-497e-a1ad-c473a52c1246-bundle","type":"transaction","entry":[{"fullUrl":"https://madie.cms.gov/Patient/38f9d5ed-c1bd-497e-a1ad-c473a52c1246","resource":{"resourceType":"Patient","id":"38f9d5ed-c1bd-497e-a1ad-c473a52c1246","meta":{"profile":["http://hl7.org/fhir/us/qicore/StructureDefinition/qicore-patient"]},"text":{"status":"generated","div":"<div xmlns=\"http://www.w3.org/1999/xhtml\"><div class=\"hapiHeaderText\">MedRsnDuringEncIpTestOccurr <b>DENEXCEPPASS </b></div><table class=\"hapiPropertyTable\"><tbody><tr><td>Identifier</td><td>8ca9552440b4ef3fc57cfe3ca8a6d18f77ae69125f1df01b31dc50e4d278f251</td></tr><tr><td>Date of birth</td><td><span>21 August 1994</span></td></tr></tbody></table></div>"},"extension":[{"url":"http://hl7.org/fhir/us/core/StructureDefinition/us-core-race","extension":[{"url":"ombCategory","valueCoding":{"system":"urn:oid:2.16.840.1.113883.6.238","code":"1002-5","display":"American Indian or Alaska Native","userSelected":true}},{"url":"text","valueString":"American Indian or Alaska Native"}]},{"url":"http://hl7.org/fhir/us/core/StructureDefinition/us-core-ethnicity","extension":[{"url":"ombCategory","valueCoding":{"system":"urn:oid:2.16.840.1.113883.6.238","code":"2135-2","display":"Hispanic or Latino","userSelected":true}},{"url":"text","valueString":"Hispanic or Latino"}]}],"identifier":[{"type":{"coding":[{"system":"http://terminology.hl7.org/CodeSystem/v2-0203","code":"MR"}]},"system":"https://bonnie-fhir.healthit.gov/","value":"6129135402c62a011f2e74a8"}],"active":true,"name":[{"use":"usual","family":"DENEXCEPPass","given":["MedRsnDuringEncIpTestOccurr"]}],"gender":"male","birthDate":"1994-08-21"},"request":{"method":"PUT","url":"Patient/38f9d5ed-c1bd-497e-a1ad-c473a52c1246"}},{"fullUrl":"https://madie.cms.gov/Encounter/a72baebf-5260-46d1-b822-5e3a6dc68ae6","resource":{"resourceType":"Encounter","id":"a72baebf-5260-46d1-b822-5e3a6dc68ae6","meta":{"profile":["http://hl7.org/fhir/us/qicore/StructureDefinition/qicore-encounter"]},"status":"finished","class":{"system":"http://terminology.hl7.org/CodeSystem/v3-ActCode","code":"IMP","display":"inpatient encounter","userSelected":true},"type":[{"coding":[{"system":"http://snomed.info/sct","code":"32485007"}]}],"subject":{"reference":"Patient/38f9d5ed-c1bd-497e-a1ad-c473a52c1246"},"period":{"start":"2025-10-10T09:30:00.000+00:00","end":"2025-10-12T10:30:00.000+00:00"},"length":{"value":2,"unit":"days"},"diagnosis":[{"condition":{"reference":"Condition/590cca9c-3cad-4b7b-89f2-f12dcfb14beb"},"use":{"coding":[{"system":"http://terminology.hl7.org/CodeSystem/diagnosis-role","code":"billing","display":"Billing"}]},"rank":1}]},"request":{"method":"PUT","url":"Encounter/a72baebf-5260-46d1-b822-5e3a6dc68ae6"}},{"fullUrl":"https://madie.cms.gov/Encounter/ec74d11b-a3e1-4919-8de9-c52274024556","resource":{"resourceType":"Encounter","id":"ec74d11b-a3e1-4919-8de9-c52274024556","meta":{"profile":["http://hl7.org/fhir/us/qicore/StructureDefinition/qicore-encounter"]},"status":"finished","class":{"system":"http://terminology.hl7.org/CodeSystem/v3-ActCode","code":"IMP","display":"inpatient encounter","userSelected":true},"type":[{"coding":[{"system":"http://snomed.info/sct","code":"183452005"}]}],"subject":{"reference":"Patient/38f9d5ed-c1bd-497e-a1ad-c473a52c1246"},"period":{"start":"2025-10-12T10:30:00.000+00:00","end":"2025-10-12T11:30:00.000+00:00"},"length":{"value":0,"unit":"days"}},"request":{"method":"PUT","url":"Encounter/ec74d11b-a3e1-4919-8de9-c52274024556"}},{"fullUrl":"https://madie.cms.gov/MedicationRequest/12344816-3c41-4d31-873f-f6c244323f6e","resource":{"resourceType":"MedicationRequest","id":"12344816-3c41-4d31-873f-f6c244323f6e","meta":{"profile":["http://hl7.org/fhir/us/qicore/StructureDefinition/qicore-mednotrequested"]},"status":"completed","intent":"order","category":[{"coding":[{"system":"http://terminology.hl7.org/CodeSystem/medicationrequest-category","code":"community"}]}],"doNotPerform":true,"medicationCodeableConcept":{"coding":[{"system":"http://www.nlm.nih.gov/research/umls/rxnorm","code":"1037045"}]},"subject":{"reference":"Patient/38f9d5ed-c1bd-497e-a1ad-c473a52c1246"},"authoredOn":"2025-10-12T09:30:00.000+00:00","requester":{"reference":"Practitioner/example"},"reasonCode":[{"coding":[{"system":"http://snomed.info/sct","code":"183932001","display":"Procedure contraindicated (situation)","userSelected":true}]}]},"request":{"method":"PUT","url":"MedicationRequest/12344816-3c41-4d31-873f-f6c244323f6e"}},{"fullUrl":"https://madie.cms.gov/Condition/93722a61-5009-4f07-9795-d92799c8af56","resource":{"resourceType":"Condition","id":"93722a61-5009-4f07-9795-d92799c8af56","meta":{"profile":["http://hl7.org/fhir/us/qicore/StructureDefinition/qicore-condition"]},"clinicalStatus":{"coding":[{"system":"http://terminology.hl7.org/CodeSystem/condition-clinical","code":"active"}]},"verificationStatus":{"coding":[{"system":"http://terminology.hl7.org/CodeSystem/condition-ver-status","code":"confirmed"}]},"category":[{"coding":[{"system":"http://terminology.hl7.org/CodeSystem/condition-category","code":"encounter-diagnosis","display":"Encounter Diagnosis"}]}],"code":{"coding":[{"system":"http://terminology.hl7.org/CodeSystem/medicationrequest-category","code":"discharge","display":"Discharge","userSelected":true}]},"subject":{"reference":"Patient/38f9d5ed-c1bd-497e-a1ad-c473a52c1246"},"recordedDate":"2025-07-14T08:00:00.000+00:00"},"request":{"method":"PUT","url":"Condition/93722a61-5009-4f07-9795-d92799c8af56"}},{"fullUrl":"https://madie.cms.gov/Condition/590cca9c-3cad-4b7b-89f2-f12dcfb14beb","resource":{"resourceType":"Condition","id":"590cca9c-3cad-4b7b-89f2-f12dcfb14beb","meta":{"profile":["http://hl7.org/fhir/us/qicore/StructureDefinition/qicore-condition"]},"clinicalStatus":{"coding":[{"system":"http://terminology.hl7.org/CodeSystem/condition-clinical","code":"active"}]},"verificationStatus":{"coding":[{"system":"http://terminology.hl7.org/CodeSystem/condition-ver-status","code":"confirmed"}]},"category":[{"coding":[{"system":"http://terminology.hl7.org/CodeSystem/condition-category","code":"encounter-diagnosis","display":"Encounter Diagnosis"}]}],"code":{"coding":[{"system":"http://snomed.info/sct","version":"2020-09","code":"111297002","display":"Nonparalytic stroke (disorder)","userSelected":true}]},"subject":{"reference":"Patient/38f9d5ed-c1bd-497e-a1ad-c473a52c1246"},"recordedDate":"2025-07-14T08:00:00.000+00:00"},"request":{"method":"PUT","url":"Condition/590cca9c-3cad-4b7b-89f2-f12dcfb14beb"}},{"fullUrl":"https://madie.cms.gov/Coverage/44b88edf-1d2d-4ef5-bff6-b328fdd8be1b","resource":{"resourceType":"Coverage","id":"44b88edf-1d2d-4ef5-bff6-b328fdd8be1b","meta":{"profile":["http://hl7.org/fhir/us/qicore/StructureDefinition/qicore-coverage"]},"status":"active","beneficiary":{"reference":"Patient/38f9d5ed-c1bd-497e-a1ad-c473a52c1246"},"payor":[{"reference":"Organization/f4ddeb87-f380-4bc5-973a-578de88cd02e"}]},"request":{"method":"PUT","url":"Coverage/44b88edf-1d2d-4ef5-bff6-b328fdd8be1b"}},{"fullUrl":"https://madie.cms.gov/Organization/f4ddeb87-f380-4bc5-973a-578de88cd02e","resource":{"resourceType":"Organization","id":"f4ddeb87-f380-4bc5-973a-578de88cd02e","meta":{"profile":["http://hl7.org/fhir/us/qicore/StructureDefinition/qicore-organization"]},"identifier":[{"use":"temp","system":"urn:oid:2.16.840.1.113883.4.4","value":"21-3259825"}],"active":true,"type":[{"coding":[{"system":"http://terminology.hl7.org/CodeSystem/organization-type","code":"pay","display":"Payer"}]}],"name":"Blue Cross Blue Shield of Texas","telecom":[{"system":"phone","value":"(+1) 972-766-6900"}],"address":[{"use":"billing","type":"postal","line":["P.O. Box 660044"],"city":"Dallas","state":"TX","postalCode":"75266-0044","country":"USA"}]},"request":{"method":"PUT","url":"Organization/f4ddeb87-f380-4bc5-973a-578de88cd02e"}},{"fullUrl":"https://madie.cms.gov/MeasureReport/b33a6fc4-faed-41c4-99aa-1854db92675e","resource":{"resourceType":"MeasureReport","id":"b33a6fc4-faed-41c4-99aa-1854db92675e","meta":{"profile":["http://hl7.org/fhir/us/cqfmeasures/StructureDefinition/test-case-cqfm"]},"contained":[{"resourceType":"Parameters","id":"6ef031cf-b606-45c7-8c67-6932eeb2580e-parameters","parameter":[{"name":"subject","valueString":"38f9d5ed-c1bd-497e-a1ad-c473a52c1246"}]}],"extension":[{"url":"http://hl7.org/fhir/us/cqfmeasures/StructureDefinition/cqfm-inputParameters","valueReference":{"reference":"#6ef031cf-b606-45c7-8c67-6932eeb2580e-parameters"}},{"url":"http://hl7.org/fhir/us/cqfmeasures/StructureDefinition/cqfm-testCaseDescription","valueMarkdown":"Patient does not get antithrombotic medication due to medical reasons after IP encounter. Testing multiple IP encounters."}],"modifierExtension":[{"url":"http://hl7.org/fhir/us/cqfmeasures/StructureDefinition/cqfm-isTestCase","valueBoolean":true}],"status":"complete","type":"individual","measure":"https://madie.cms.gov/Measure/DischargedonAntithromboticTherapyFHIR","period":{"start":"2025-01-01","end":"2025-12-31"},"group":[{"population":[{"code":{"coding":[{"system":"http://terminology.hl7.org/CodeSystem/measure-population","code":"initial-population","display":"Initial Population"}]},"count":1},{"code":{"coding":[{"system":"http://terminology.hl7.org/CodeSystem/measure-population","code":"denominator","display":"Denominator"}]},"count":1},{"code":{"coding":[{"system":"http://terminology.hl7.org/CodeSystem/measure-population","code":"denominator-exclusion","display":"Denominator Exclusion"}]},"count":0},{"code":{"coding":[{"system":"http://terminology.hl7.org/CodeSystem/measure-population","code":"numerator","display":"Numerator"}]},"count":0},{"code":{"coding":[{"system":"http://terminology.hl7.org/CodeSystem/measure-population","code":"denominator-exception","display":"Denominator Exception"}]},"count":1}]}],"evaluatedResource":[{"reference":"Patient/38f9d5ed-c1bd-497e-a1ad-c473a52c1246"},{"reference":"Encounter/a72baebf-5260-46d1-b822-5e3a6dc68ae6"},{"reference":"Encounter/ec74d11b-a3e1-4919-8de9-c52274024556"},{"reference":"MedicationRequest/12344816-3c41-4d31-873f-f6c244323f6e"},{"reference":"Condition/93722a61-5009-4f07-9795-d92799c8af56"},{"reference":"Condition/590cca9c-3cad-4b7b-89f2-f12dcfb14beb"},{"reference":"Coverage/44b88edf-1d2d-4ef5-bff6-b328fdd8be1b"},{"reference":"Organization/f4ddeb87-f380-4bc5-973a-578de88cd02e"}]},"request":{"method":"PUT","url":"MeasureReport/b33a6fc4-faed-41c4-99aa-1854db92675e"}}]}