{"resourceType":"Bundle","id":"tests-8152e72a-d3ce-4840-939c-7ac6fb556ece-bundle","type":"transaction","entry":[{"fullUrl":"https://madie.cms.gov/Patient/8152e72a-d3ce-4840-939c-7ac6fb556ece","resource":{"resourceType":"Patient","id":"8152e72a-d3ce-4840-939c-7ac6fb556ece","meta":{"profile":["http://hl7.org/fhir/us/qicore/StructureDefinition/qicore-patient"]},"text":{"status":"generated","div":"<div xmlns=\"http://www.w3.org/1999/xhtml\"><div class=\"hapiHeaderText\">PatRefDuringEncIp <b>DENEXCEPPASS </b></div><table class=\"hapiPropertyTable\"><tbody><tr><td>Identifier</td><td>f27996c6545ea958dc5266f6c01bdf6c</td></tr><tr><td>Date of birth</td><td><span>21 August 1994</span></td></tr></tbody></table></div>"},"extension":[{"url":"http://hl7.org/fhir/us/core/StructureDefinition/us-core-race","extension":[{"url":"ombCategory","valueCoding":{"system":"urn:oid:2.16.840.1.113883.6.238","code":"1002-5","display":"American Indian or Alaska Native","userSelected":true}},{"url":"text","valueString":"American Indian or Alaska Native"}]},{"url":"http://hl7.org/fhir/us/core/StructureDefinition/us-core-ethnicity","extension":[{"url":"ombCategory","valueCoding":{"system":"urn:oid:2.16.840.1.113883.6.238","code":"2135-2","display":"Hispanic or Latino","userSelected":true}},{"url":"text","valueString":"Hispanic or Latino"}]}],"identifier":[{"type":{"coding":[{"system":"http://terminology.hl7.org/CodeSystem/v2-0203","code":"MR"}]},"system":"https://bonnie-fhir.healthit.gov/","value":"6129134402c62a011f2e6c9e"}],"active":true,"name":[{"use":"usual","family":"DENEXCEPPass","given":["PatRefDuringEncIp"]}],"gender":"male","birthDate":"1994-08-21"},"request":{"method":"PUT","url":"Patient/8152e72a-d3ce-4840-939c-7ac6fb556ece"}},{"fullUrl":"https://madie.cms.gov/Encounter/b810ff64-2488-4f6c-903f-a84eb83a1e8c","resource":{"resourceType":"Encounter","id":"b810ff64-2488-4f6c-903f-a84eb83a1e8c","meta":{"profile":["http://hl7.org/fhir/us/qicore/StructureDefinition/qicore-encounter"]},"status":"finished","class":{"system":"http://terminology.hl7.org/CodeSystem/v3-ActCode","code":"IMP","display":"inpatient encounter","userSelected":true},"type":[{"coding":[{"system":"http://snomed.info/sct","code":"32485007"}]}],"subject":{"reference":"Patient/8152e72a-d3ce-4840-939c-7ac6fb556ece"},"period":{"start":"2025-10-10T09:30:00.000+00:00","end":"2025-10-12T10:30:00.000+00:00"},"length":{"value":2,"unit":"days"},"diagnosis":[{"condition":{"reference":"Condition/25cdf8a7-7cc9-417d-a120-88afb38a294b"},"use":{"coding":[{"system":"http://terminology.hl7.org/CodeSystem/diagnosis-role","code":"billing","display":"Billing"}]},"rank":1}]},"request":{"method":"PUT","url":"Encounter/b810ff64-2488-4f6c-903f-a84eb83a1e8c"}},{"fullUrl":"https://madie.cms.gov/MedicationRequest/92827d6f-ecd7-49ea-ace7-efde29b98139","resource":{"resourceType":"MedicationRequest","id":"92827d6f-ecd7-49ea-ace7-efde29b98139","meta":{"profile":["http://hl7.org/fhir/us/qicore/StructureDefinition/qicore-mednotrequested"]},"status":"completed","intent":"order","category":[{"coding":[{"system":"http://terminology.hl7.org/CodeSystem/medicationrequest-category","code":"community"}]}],"doNotPerform":true,"medicationCodeableConcept":{"coding":[{"system":"http://www.nlm.nih.gov/research/umls/rxnorm","code":"1037045"}]},"subject":{"reference":"Patient/8152e72a-d3ce-4840-939c-7ac6fb556ece"},"authoredOn":"2025-10-12T09:30:00.000+00:00","requester":{"reference":"Practitioner/example"},"reasonCode":[{"coding":[{"system":"http://snomed.info/sct","code":"443390004","display":"Refused"}]}]},"request":{"method":"PUT","url":"MedicationRequest/92827d6f-ecd7-49ea-ace7-efde29b98139"}},{"fullUrl":"https://madie.cms.gov/Condition/25cdf8a7-7cc9-417d-a120-88afb38a294b","resource":{"resourceType":"Condition","id":"25cdf8a7-7cc9-417d-a120-88afb38a294b","meta":{"profile":["http://hl7.org/fhir/us/qicore/StructureDefinition/qicore-condition"]},"clinicalStatus":{"coding":[{"system":"http://terminology.hl7.org/CodeSystem/condition-clinical","code":"active"}]},"verificationStatus":{"coding":[{"system":"http://terminology.hl7.org/CodeSystem/condition-ver-status","code":"confirmed"}]},"category":[{"coding":[{"system":"http://terminology.hl7.org/CodeSystem/condition-category","code":"encounter-diagnosis","display":"Encounter Diagnosis"}]}],"code":{"coding":[{"system":"http://snomed.info/sct","version":"2020-09","code":"111297002","display":"Nonparalytic stroke (disorder)","userSelected":true}]},"subject":{"reference":"Patient/8152e72a-d3ce-4840-939c-7ac6fb556ece"},"recordedDate":"2025-07-14T08:00:00.000+00:00"},"request":{"method":"PUT","url":"Condition/25cdf8a7-7cc9-417d-a120-88afb38a294b"}},{"fullUrl":"https://madie.cms.gov/Coverage/815d2d9e-43e0-4723-b961-ce9a410ded93","resource":{"resourceType":"Coverage","id":"815d2d9e-43e0-4723-b961-ce9a410ded93","meta":{"profile":["http://hl7.org/fhir/us/qicore/StructureDefinition/qicore-coverage"]},"status":"active","beneficiary":{"reference":"Patient/8152e72a-d3ce-4840-939c-7ac6fb556ece"},"payor":[{"reference":"Organization/256e9daf-4a60-424a-9e47-2e97cbbb9f9e"}]},"request":{"method":"PUT","url":"Coverage/815d2d9e-43e0-4723-b961-ce9a410ded93"}},{"fullUrl":"https://madie.cms.gov/Organization/256e9daf-4a60-424a-9e47-2e97cbbb9f9e","resource":{"resourceType":"Organization","id":"256e9daf-4a60-424a-9e47-2e97cbbb9f9e","meta":{"profile":["http://hl7.org/fhir/us/qicore/StructureDefinition/qicore-organization"]},"identifier":[{"use":"temp","system":"urn:oid:2.16.840.1.113883.4.4","value":"21-3259825"}],"active":true,"type":[{"coding":[{"system":"http://terminology.hl7.org/CodeSystem/organization-type","code":"pay","display":"Payer"}]}],"name":"Blue Cross Blue Shield of Texas","telecom":[{"system":"phone","value":"(+1) 972-766-6900"}],"address":[{"use":"billing","type":"postal","line":["P.O. Box 660044"],"city":"Dallas","state":"TX","postalCode":"75266-0044","country":"USA"}]},"request":{"method":"PUT","url":"Organization/256e9daf-4a60-424a-9e47-2e97cbbb9f9e"}},{"fullUrl":"https://madie.cms.gov/MeasureReport/c042fb5b-734f-4afa-b378-27b7b0d5c5ae","resource":{"resourceType":"MeasureReport","id":"c042fb5b-734f-4afa-b378-27b7b0d5c5ae","meta":{"profile":["http://hl7.org/fhir/us/cqfmeasures/StructureDefinition/test-case-cqfm"]},"contained":[{"resourceType":"Parameters","id":"616fe2e3-5be1-4168-8410-3afcbc1bf4cb-parameters","parameter":[{"name":"subject","valueString":"8152e72a-d3ce-4840-939c-7ac6fb556ece"}]}],"extension":[{"url":"http://hl7.org/fhir/us/cqfmeasures/StructureDefinition/cqfm-inputParameters","valueReference":{"reference":"#616fe2e3-5be1-4168-8410-3afcbc1bf4cb-parameters"}},{"url":"http://hl7.org/fhir/us/cqfmeasures/StructureDefinition/cqfm-testCaseDescription","valueMarkdown":"PatRefDuringEncIp\n"}],"modifierExtension":[{"url":"http://hl7.org/fhir/us/cqfmeasures/StructureDefinition/cqfm-isTestCase","valueBoolean":true}],"status":"complete","type":"individual","measure":"https://madie.cms.gov/Measure/DischargedonAntithromboticTherapyFHIR","period":{"start":"2025-01-01","end":"2025-12-31"},"group":[{"population":[{"code":{"coding":[{"system":"http://terminology.hl7.org/CodeSystem/measure-population","code":"initial-population","display":"Initial Population"}]},"count":1},{"code":{"coding":[{"system":"http://terminology.hl7.org/CodeSystem/measure-population","code":"denominator","display":"Denominator"}]},"count":1},{"code":{"coding":[{"system":"http://terminology.hl7.org/CodeSystem/measure-population","code":"denominator-exclusion","display":"Denominator Exclusion"}]},"count":0},{"code":{"coding":[{"system":"http://terminology.hl7.org/CodeSystem/measure-population","code":"numerator","display":"Numerator"}]},"count":0},{"code":{"coding":[{"system":"http://terminology.hl7.org/CodeSystem/measure-population","code":"denominator-exception","display":"Denominator Exception"}]},"count":1}]}],"evaluatedResource":[{"reference":"Patient/8152e72a-d3ce-4840-939c-7ac6fb556ece"},{"reference":"Encounter/b810ff64-2488-4f6c-903f-a84eb83a1e8c"},{"reference":"MedicationRequest/92827d6f-ecd7-49ea-ace7-efde29b98139"},{"reference":"Condition/25cdf8a7-7cc9-417d-a120-88afb38a294b"},{"reference":"Coverage/815d2d9e-43e0-4723-b961-ce9a410ded93"},{"reference":"Organization/256e9daf-4a60-424a-9e47-2e97cbbb9f9e"}]},"request":{"method":"PUT","url":"MeasureReport/c042fb5b-734f-4afa-b378-27b7b0d5c5ae"}}]}