{"resourceType":"Bundle","id":"tests-35c7016b-0744-48b5-8f04-ecee82a67a94-bundle","type":"transaction","entry":[{"fullUrl":"https://madie.cms.gov/Patient/35c7016b-0744-48b5-8f04-ecee82a67a94","resource":{"resourceType":"Patient","id":"35c7016b-0744-48b5-8f04-ecee82a67a94","meta":{"profile":["http://hl7.org/fhir/us/qicore/StructureDefinition/qicore-patient"]},"text":{"status":"generated","div":"<div xmlns=\"http://www.w3.org/1999/xhtml\"><div class=\"hapiHeaderText\">MedRsnStartTmLTEncInpAdmTm <b>DENEXCEPFAIL </b></div><table class=\"hapiPropertyTable\"><tbody><tr><td>Identifier</td><td>86036eda0fb13939e8f133c12f3aea18</td></tr><tr><td>Date of birth</td><td><span>21 August 1994</span></td></tr></tbody></table></div>"},"extension":[{"url":"http://hl7.org/fhir/us/core/StructureDefinition/us-core-race","extension":[{"url":"ombCategory","valueCoding":{"system":"urn:oid:2.16.840.1.113883.6.238","code":"1002-5","display":"American Indian or Alaska Native","userSelected":true}},{"url":"text","valueString":"American Indian or Alaska Native"}]},{"url":"http://hl7.org/fhir/us/core/StructureDefinition/us-core-ethnicity","extension":[{"url":"ombCategory","valueCoding":{"system":"urn:oid:2.16.840.1.113883.6.238","code":"2135-2","display":"Hispanic or Latino","userSelected":true}},{"url":"text","valueString":"Hispanic or Latino"}]}],"identifier":[{"type":{"coding":[{"system":"http://terminology.hl7.org/CodeSystem/v2-0203","code":"MR"}]},"system":"https://bonnie-fhir.healthit.gov/","value":"6129133102c62a011f2e6499"}],"active":true,"name":[{"use":"usual","family":"DENEXCEPFail","given":["MedRsnStartTmLTEncInpAdmTm"]}],"gender":"male","birthDate":"1994-08-21"},"request":{"method":"PUT","url":"Patient/35c7016b-0744-48b5-8f04-ecee82a67a94"}},{"fullUrl":"https://madie.cms.gov/Encounter/b4ab5426-84eb-4958-88b7-b4a973e37411","resource":{"resourceType":"Encounter","id":"b4ab5426-84eb-4958-88b7-b4a973e37411","meta":{"profile":["http://hl7.org/fhir/us/qicore/StructureDefinition/qicore-encounter"]},"status":"finished","class":{"system":"http://terminology.hl7.org/CodeSystem/v3-ActCode","code":"IMP","display":"inpatient encounter","userSelected":true},"type":[{"coding":[{"system":"http://snomed.info/sct","code":"32485007"}]}],"subject":{"reference":"Patient/35c7016b-0744-48b5-8f04-ecee82a67a94"},"period":{"start":"2025-10-10T09:30:00.000+00:00","end":"2025-10-12T10:30:00.000+00:00"},"length":{"value":2,"unit":"days"},"diagnosis":[{"condition":{"reference":"Condition/f4330aa0-edd8-4ef3-9955-d73e6218eb38"},"use":{"coding":[{"system":"http://terminology.hl7.org/CodeSystem/diagnosis-role","code":"billing","display":"Billing"}]},"rank":1}]},"request":{"method":"PUT","url":"Encounter/b4ab5426-84eb-4958-88b7-b4a973e37411"}},{"fullUrl":"https://madie.cms.gov/MedicationRequest/9f5345cb-d8d4-454f-9c6e-4c02da477f31","resource":{"resourceType":"MedicationRequest","id":"9f5345cb-d8d4-454f-9c6e-4c02da477f31","meta":{"profile":["http://hl7.org/fhir/us/qicore/StructureDefinition/qicore-mednotrequested"]},"status":"completed","intent":"order","doNotPerform":true,"medicationCodeableConcept":{"coding":[{"system":"http://www.nlm.nih.gov/research/umls/rxnorm","code":"1037045"}]},"subject":{"reference":"Patient/35c7016b-0744-48b5-8f04-ecee82a67a94"},"authoredOn":"2012-10-10T09:29:00+00:00","requester":{"reference":"Practitioner/example"},"reasonCode":[{"coding":[{"system":"http://snomed.info/sct","code":"183932001"}]}]},"request":{"method":"PUT","url":"MedicationRequest/9f5345cb-d8d4-454f-9c6e-4c02da477f31"}},{"fullUrl":"https://madie.cms.gov/Condition/f4330aa0-edd8-4ef3-9955-d73e6218eb38","resource":{"resourceType":"Condition","id":"f4330aa0-edd8-4ef3-9955-d73e6218eb38","meta":{"profile":["http://hl7.org/fhir/us/qicore/StructureDefinition/qicore-condition"]},"clinicalStatus":{"coding":[{"system":"http://terminology.hl7.org/CodeSystem/condition-clinical","code":"active"}]},"verificationStatus":{"coding":[{"system":"http://terminology.hl7.org/CodeSystem/condition-ver-status","code":"confirmed"}]},"category":[{"coding":[{"system":"http://terminology.hl7.org/CodeSystem/condition-category","code":"encounter-diagnosis","display":"Encounter Diagnosis"}]}],"code":{"coding":[{"system":"http://snomed.info/sct","version":"2020-09","code":"111297002","display":"Nonparalytic stroke (disorder)","userSelected":true}]},"subject":{"reference":"Patient/35c7016b-0744-48b5-8f04-ecee82a67a94"},"recordedDate":"2025-07-13T08:00:00.000+00:00"},"request":{"method":"PUT","url":"Condition/f4330aa0-edd8-4ef3-9955-d73e6218eb38"}},{"fullUrl":"https://madie.cms.gov/Coverage/8e6bc127-ee0c-4427-ba8e-42ee3f137bbb","resource":{"resourceType":"Coverage","id":"8e6bc127-ee0c-4427-ba8e-42ee3f137bbb","meta":{"profile":["http://hl7.org/fhir/us/qicore/StructureDefinition/qicore-coverage"]},"status":"active","beneficiary":{"reference":"Patient/35c7016b-0744-48b5-8f04-ecee82a67a94"},"period":{"start":"1969-07-31T08:00:00.000Z"},"payor":[{"reference":"Organization/4dca40b2-4a09-4505-80e5-5e84d021950e"}]},"request":{"method":"PUT","url":"Coverage/8e6bc127-ee0c-4427-ba8e-42ee3f137bbb"}},{"fullUrl":"https://madie.cms.gov/Organization/4dca40b2-4a09-4505-80e5-5e84d021950e","resource":{"resourceType":"Organization","id":"4dca40b2-4a09-4505-80e5-5e84d021950e","meta":{"profile":["http://hl7.org/fhir/us/qicore/StructureDefinition/qicore-organization"]},"identifier":[{"use":"temp","system":"urn:oid:2.16.840.1.113883.4.4","value":"21-3259825"}],"active":true,"type":[{"coding":[{"system":"http://terminology.hl7.org/CodeSystem/organization-type","code":"pay","display":"Payer"}]}],"name":"Blue Cross Blue Shield of Texas","telecom":[{"system":"phone","value":"(+1) 972-766-6900"}],"address":[{"use":"billing","type":"postal","line":["P.O. Box 660044"],"city":"Dallas","state":"TX","postalCode":"75266-0044","country":"USA"}]},"request":{"method":"PUT","url":"Organization/4dca40b2-4a09-4505-80e5-5e84d021950e"}},{"fullUrl":"https://madie.cms.gov/MeasureReport/26a576b8-80aa-4415-886a-e25270b02cf2","resource":{"resourceType":"MeasureReport","id":"26a576b8-80aa-4415-886a-e25270b02cf2","meta":{"profile":["http://hl7.org/fhir/us/cqfmeasures/StructureDefinition/test-case-cqfm"]},"contained":[{"resourceType":"Parameters","id":"f58aa640-4618-478b-a282-24c9b5aa51b9-parameters","parameter":[{"name":"subject","valueString":"35c7016b-0744-48b5-8f04-ecee82a67a94"}]}],"extension":[{"url":"http://hl7.org/fhir/us/cqfmeasures/StructureDefinition/cqfm-inputParameters","valueReference":{"reference":"#f58aa640-4618-478b-a282-24c9b5aa51b9-parameters"}},{"url":"http://hl7.org/fhir/us/cqfmeasures/StructureDefinition/cqfm-testCaseDescription","valueMarkdown":"Patient does not get antithrombotic medication due to medical reasons before IP encounter. This case tests the timing boundary for den exception criteria. "}],"modifierExtension":[{"url":"http://hl7.org/fhir/us/cqfmeasures/StructureDefinition/cqfm-isTestCase","valueBoolean":true}],"status":"complete","type":"individual","measure":"https://madie.cms.gov/Measure/DischargedonAntithromboticTherapyFHIR","period":{"start":"2025-01-01","end":"2025-12-31"},"group":[{"population":[{"code":{"coding":[{"system":"http://terminology.hl7.org/CodeSystem/measure-population","code":"initial-population","display":"Initial Population"}]},"count":1},{"code":{"coding":[{"system":"http://terminology.hl7.org/CodeSystem/measure-population","code":"denominator","display":"Denominator"}]},"count":1},{"code":{"coding":[{"system":"http://terminology.hl7.org/CodeSystem/measure-population","code":"denominator-exclusion","display":"Denominator Exclusion"}]},"count":0},{"code":{"coding":[{"system":"http://terminology.hl7.org/CodeSystem/measure-population","code":"numerator","display":"Numerator"}]},"count":0},{"code":{"coding":[{"system":"http://terminology.hl7.org/CodeSystem/measure-population","code":"denominator-exception","display":"Denominator Exception"}]},"count":0}]}],"evaluatedResource":[{"reference":"Patient/35c7016b-0744-48b5-8f04-ecee82a67a94"},{"reference":"Encounter/b4ab5426-84eb-4958-88b7-b4a973e37411"},{"reference":"MedicationRequest/9f5345cb-d8d4-454f-9c6e-4c02da477f31"},{"reference":"Condition/f4330aa0-edd8-4ef3-9955-d73e6218eb38"},{"reference":"Coverage/8e6bc127-ee0c-4427-ba8e-42ee3f137bbb"},{"reference":"Organization/4dca40b2-4a09-4505-80e5-5e84d021950e"}]},"request":{"method":"PUT","url":"MeasureReport/26a576b8-80aa-4415-886a-e25270b02cf2"}}]}