{"resourceType":"Bundle","id":"tests-ca07d1d5-4ca2-4543-8b69-7ceabc574373-bundle","type":"transaction","entry":[{"fullUrl":"https://madie.cms.gov/Patient/ca07d1d5-4ca2-4543-8b69-7ceabc574373","resource":{"resourceType":"Patient","id":"ca07d1d5-4ca2-4543-8b69-7ceabc574373","meta":{"profile":["http://hl7.org/fhir/us/qicore/StructureDefinition/qicore-patient"]},"text":{"status":"generated","div":"<div xmlns=\"http://www.w3.org/1999/xhtml\"><div class=\"hapiHeaderText\">NoPrincDx <b>IPFAIL </b></div><table class=\"hapiPropertyTable\"><tbody><tr><td>Identifier</td><td>05f04bc3a037918e7f8e8e698f994329</td></tr><tr><td>Date of birth</td><td><span>21 August 1994</span></td></tr></tbody></table></div>"},"extension":[{"url":"http://hl7.org/fhir/us/core/StructureDefinition/us-core-race","extension":[{"url":"ombCategory","valueCoding":{"system":"urn:oid:2.16.840.1.113883.6.238","code":"1002-5","display":"American Indian or Alaska Native","userSelected":true}},{"url":"text","valueString":"American Indian or Alaska Native"}]},{"url":"http://hl7.org/fhir/us/core/StructureDefinition/us-core-ethnicity","extension":[{"url":"ombCategory","valueCoding":{"system":"urn:oid:2.16.840.1.113883.6.238","code":"2135-2","display":"Hispanic or Latino","userSelected":true}},{"url":"text","valueString":"Hispanic or Latino"}]}],"identifier":[{"type":{"coding":[{"system":"http://terminology.hl7.org/CodeSystem/v2-0203","code":"MR"}]},"system":"https://bonnie-fhir.healthit.gov/","value":"6129131f02c62a011f2e5dc4"}],"active":true,"name":[{"use":"usual","family":"IPFail","given":["NoPrincDx"]}],"gender":"male","birthDate":"2003-08-21"},"request":{"method":"PUT","url":"Patient/ca07d1d5-4ca2-4543-8b69-7ceabc574373"}},{"fullUrl":"https://madie.cms.gov/Encounter/35fd3083-6f0d-4da8-94ad-97160b7017cb","resource":{"resourceType":"Encounter","id":"35fd3083-6f0d-4da8-94ad-97160b7017cb","meta":{"profile":["http://hl7.org/fhir/us/qicore/StructureDefinition/qicore-encounter"]},"status":"finished","class":{"system":"http://terminology.hl7.org/CodeSystem/v3-ActCode","code":"IMP","display":"inpatient encounter","userSelected":true},"type":[{"coding":[{"system":"http://snomed.info/sct","code":"32485007"}]}],"subject":{"reference":"Patient/ca07d1d5-4ca2-4543-8b69-7ceabc574373"},"period":{"start":"2025-08-21T09:30:00.000+00:00","end":"2025-12-19T10:30:00.000+00:00"},"length":{"value":120,"unit":"days"}},"request":{"method":"PUT","url":"Encounter/35fd3083-6f0d-4da8-94ad-97160b7017cb"}},{"fullUrl":"https://madie.cms.gov/Coverage/4f21df08-f3ab-4a05-8665-aeca7767a1ef","resource":{"resourceType":"Coverage","id":"4f21df08-f3ab-4a05-8665-aeca7767a1ef","meta":{"profile":["http://hl7.org/fhir/us/qicore/StructureDefinition/qicore-coverage"]},"status":"active","beneficiary":{"reference":"Patient/ca07d1d5-4ca2-4543-8b69-7ceabc574373"},"payor":[{"reference":"Organization/f3289dba-62df-4dae-995c-700becee2dc5"}]},"request":{"method":"PUT","url":"Coverage/4f21df08-f3ab-4a05-8665-aeca7767a1ef"}},{"fullUrl":"https://madie.cms.gov/Organization/f3289dba-62df-4dae-995c-700becee2dc5","resource":{"resourceType":"Organization","id":"f3289dba-62df-4dae-995c-700becee2dc5","meta":{"profile":["http://hl7.org/fhir/us/qicore/StructureDefinition/qicore-organization"]},"identifier":[{"use":"temp","system":"urn:oid:2.16.840.1.113883.4.4","value":"21-3259825"}],"active":true,"type":[{"coding":[{"system":"http://terminology.hl7.org/CodeSystem/organization-type","code":"pay","display":"Payer"}]}],"name":"Blue Cross Blue Shield of Texas","telecom":[{"system":"phone","value":"(+1) 972-766-6900"}],"address":[{"use":"billing","type":"postal","line":["P.O. Box 660044"],"city":"Dallas","state":"TX","postalCode":"75266-0044","country":"USA"}]},"request":{"method":"PUT","url":"Organization/f3289dba-62df-4dae-995c-700becee2dc5"}},{"fullUrl":"https://madie.cms.gov/MeasureReport/66bd10dc-c86f-4f0b-bc23-0528d5047904","resource":{"resourceType":"MeasureReport","id":"66bd10dc-c86f-4f0b-bc23-0528d5047904","meta":{"profile":["http://hl7.org/fhir/us/cqfmeasures/StructureDefinition/test-case-cqfm"]},"contained":[{"resourceType":"Parameters","id":"004e4eea-a91d-4644-bcbb-4b627e81be32-parameters","parameter":[{"name":"subject","valueString":"ca07d1d5-4ca2-4543-8b69-7ceabc574373"}]}],"extension":[{"url":"http://hl7.org/fhir/us/cqfmeasures/StructureDefinition/cqfm-inputParameters","valueReference":{"reference":"#004e4eea-a91d-4644-bcbb-4b627e81be32-parameters"}},{"url":"http://hl7.org/fhir/us/cqfmeasures/StructureDefinition/cqfm-testCaseDescription","valueMarkdown":"Patient is 18 with Non-Elective Inpatient Encounter (LOS 120 days) ends during MP with no principal diagnosis of stroke\n"}],"modifierExtension":[{"url":"http://hl7.org/fhir/us/cqfmeasures/StructureDefinition/cqfm-isTestCase","valueBoolean":true}],"status":"complete","type":"individual","measure":"https://madie.cms.gov/Measure/DischargedonAntithromboticTherapyFHIR","period":{"start":"2025-01-01","end":"2025-12-31"},"group":[{"population":[{"code":{"coding":[{"system":"http://terminology.hl7.org/CodeSystem/measure-population","code":"initial-population","display":"Initial Population"}]},"count":0},{"code":{"coding":[{"system":"http://terminology.hl7.org/CodeSystem/measure-population","code":"denominator","display":"Denominator"}]},"count":0},{"code":{"coding":[{"system":"http://terminology.hl7.org/CodeSystem/measure-population","code":"denominator-exclusion","display":"Denominator Exclusion"}]},"count":0},{"code":{"coding":[{"system":"http://terminology.hl7.org/CodeSystem/measure-population","code":"numerator","display":"Numerator"}]},"count":0},{"code":{"coding":[{"system":"http://terminology.hl7.org/CodeSystem/measure-population","code":"denominator-exception","display":"Denominator Exception"}]},"count":0}]}],"evaluatedResource":[{"reference":"Patient/ca07d1d5-4ca2-4543-8b69-7ceabc574373"},{"reference":"Encounter/35fd3083-6f0d-4da8-94ad-97160b7017cb"},{"reference":"Coverage/4f21df08-f3ab-4a05-8665-aeca7767a1ef"},{"reference":"Organization/f3289dba-62df-4dae-995c-700becee2dc5"}]},"request":{"method":"PUT","url":"MeasureReport/66bd10dc-c86f-4f0b-bc23-0528d5047904"}}]}