{"resourceType":"Bundle","id":"tests-c07491f9-662f-4d7e-8ed4-3ad32ca15a6e-bundle","type":"transaction","entry":[{"fullUrl":"https://madie.cms.gov/Patient/c07491f9-662f-4d7e-8ed4-3ad32ca15a6e","resource":{"resourceType":"Patient","id":"c07491f9-662f-4d7e-8ed4-3ad32ca15a6e","meta":{"profile":["http://hl7.org/fhir/us/qicore/StructureDefinition/qicore-patient"]},"text":{"status":"generated","div":"<div xmlns=\"http://www.w3.org/1999/xhtml\"><div class=\"hapiHeaderText\">PrinDxIsHemo <b>IPPASS </b></div><table class=\"hapiPropertyTable\"><tbody><tr><td>Identifier</td><td>36cd0e918a6d0523f6b1248c5af83d68</td></tr><tr><td>Date of birth</td><td><span>21 August 1994</span></td></tr></tbody></table></div>"},"extension":[{"url":"http://hl7.org/fhir/us/core/StructureDefinition/us-core-race","extension":[{"url":"ombCategory","valueCoding":{"system":"urn:oid:2.16.840.1.113883.6.238","code":"1002-5","display":"American Indian or Alaska Native","userSelected":true}},{"url":"text","valueString":"American Indian or Alaska Native"}]},{"url":"http://hl7.org/fhir/us/core/StructureDefinition/us-core-ethnicity","extension":[{"url":"ombCategory","valueCoding":{"system":"urn:oid:2.16.840.1.113883.6.238","code":"2135-2","display":"Hispanic or Latino","userSelected":true}},{"url":"text","valueString":"Hispanic or Latino"}]}],"identifier":[{"type":{"coding":[{"system":"http://terminology.hl7.org/CodeSystem/v2-0203","code":"MR"}]},"system":"https://bonnie-fhir.healthit.gov/","value":"6129133802c62a011f2e6764"}],"active":true,"name":[{"use":"usual","family":"IPPass","given":["PrinDxIsHemo"]}],"gender":"male","birthDate":"2003-08-21"},"request":{"method":"PUT","url":"Patient/c07491f9-662f-4d7e-8ed4-3ad32ca15a6e"}},{"fullUrl":"https://madie.cms.gov/Encounter/a622feb0-ad4a-43e5-b9eb-540efccb314d","resource":{"resourceType":"Encounter","id":"a622feb0-ad4a-43e5-b9eb-540efccb314d","meta":{"profile":["http://hl7.org/fhir/us/qicore/StructureDefinition/qicore-encounter"]},"status":"finished","class":{"system":"http://terminology.hl7.org/CodeSystem/v3-ActCode","code":"IMP","display":"inpatient encounter","userSelected":true},"type":[{"coding":[{"system":"http://snomed.info/sct","code":"32485007"}]}],"subject":{"reference":"Patient/c07491f9-662f-4d7e-8ed4-3ad32ca15a6e"},"period":{"start":"2025-08-21T08:00:00.000+00:00","end":"2025-12-19T08:15:00.000+00:00"},"length":{"value":120,"unit":"days"},"diagnosis":[{"condition":{"reference":"Condition/2a7f1889-c952-4fa3-b94b-43b97f65e8ef"},"use":{"coding":[{"system":"http://terminology.hl7.org/CodeSystem/diagnosis-role","code":"billing","display":"Billing"}]},"rank":1}]},"request":{"method":"PUT","url":"Encounter/a622feb0-ad4a-43e5-b9eb-540efccb314d"}},{"fullUrl":"https://madie.cms.gov/Condition/2a7f1889-c952-4fa3-b94b-43b97f65e8ef","resource":{"resourceType":"Condition","id":"2a7f1889-c952-4fa3-b94b-43b97f65e8ef","meta":{"profile":["http://hl7.org/fhir/us/qicore/StructureDefinition/qicore-condition"]},"clinicalStatus":{"coding":[{"system":"http://terminology.hl7.org/CodeSystem/condition-clinical","code":"active"}]},"verificationStatus":{"coding":[{"system":"http://terminology.hl7.org/CodeSystem/condition-ver-status","code":"confirmed"}]},"category":[{"coding":[{"system":"http://terminology.hl7.org/CodeSystem/condition-category","code":"encounter-diagnosis","display":"Encounter Diagnosis"}]}],"code":{"coding":[{"system":"http://snomed.info/sct","version":"2020-09","code":"195155004","display":"Subarachnoid hemorrhage from carotid siphon and bifurcation (disorder)","userSelected":true}]},"subject":{"reference":"Patient/c07491f9-662f-4d7e-8ed4-3ad32ca15a6e"},"recordedDate":"2025-07-15T08:00:00.000+00:00"},"request":{"method":"PUT","url":"Condition/2a7f1889-c952-4fa3-b94b-43b97f65e8ef"}},{"fullUrl":"https://madie.cms.gov/Coverage/95b196ab-a905-441f-bdc6-4e4e06192d49","resource":{"resourceType":"Coverage","id":"95b196ab-a905-441f-bdc6-4e4e06192d49","meta":{"profile":["http://hl7.org/fhir/us/qicore/StructureDefinition/qicore-coverage"]},"status":"active","beneficiary":{"reference":"Patient/c07491f9-662f-4d7e-8ed4-3ad32ca15a6e"},"payor":[{"reference":"Organization/bdc91a11-f6d1-4ba3-84ac-b486c4d4e660"}]},"request":{"method":"PUT","url":"Coverage/95b196ab-a905-441f-bdc6-4e4e06192d49"}},{"fullUrl":"https://madie.cms.gov/Organization/bdc91a11-f6d1-4ba3-84ac-b486c4d4e660","resource":{"resourceType":"Organization","id":"bdc91a11-f6d1-4ba3-84ac-b486c4d4e660","meta":{"profile":["http://hl7.org/fhir/us/qicore/StructureDefinition/qicore-organization"]},"identifier":[{"use":"temp","system":"urn:oid:2.16.840.1.113883.4.4","value":"21-3259825"}],"active":true,"type":[{"coding":[{"system":"http://terminology.hl7.org/CodeSystem/organization-type","code":"pay","display":"Payer"}]}],"name":"Blue Cross Blue Shield of Texas","telecom":[{"system":"phone","value":"(+1) 972-766-6900"}],"address":[{"use":"billing","type":"postal","line":["P.O. Box 660044"],"city":"Dallas","state":"TX","postalCode":"75266-0044","country":"USA"}]},"request":{"method":"PUT","url":"Organization/bdc91a11-f6d1-4ba3-84ac-b486c4d4e660"}},{"fullUrl":"https://madie.cms.gov/MeasureReport/77edca79-a227-42e0-b697-63c40fed1338","resource":{"resourceType":"MeasureReport","id":"77edca79-a227-42e0-b697-63c40fed1338","meta":{"profile":["http://hl7.org/fhir/us/cqfmeasures/StructureDefinition/test-case-cqfm"]},"contained":[{"resourceType":"Parameters","id":"52f09982-1765-4e2a-9152-95c99d6b33dd-parameters","parameter":[{"name":"subject","valueString":"c07491f9-662f-4d7e-8ed4-3ad32ca15a6e"}]}],"extension":[{"url":"http://hl7.org/fhir/us/cqfmeasures/StructureDefinition/cqfm-inputParameters","valueReference":{"reference":"#52f09982-1765-4e2a-9152-95c99d6b33dd-parameters"}},{"url":"http://hl7.org/fhir/us/cqfmeasures/StructureDefinition/cqfm-testCaseDescription","valueMarkdown":"Patient is 18 with Encounter Inpatient (LOS 120 days) with principal diagnosis of hemorrhagic stroke.\n"}],"modifierExtension":[{"url":"http://hl7.org/fhir/us/cqfmeasures/StructureDefinition/cqfm-isTestCase","valueBoolean":true}],"status":"complete","type":"individual","measure":"https://madie.cms.gov/Measure/DischargedonAntithromboticTherapyFHIR","period":{"start":"2025-01-01","end":"2025-12-31"},"group":[{"population":[{"code":{"coding":[{"system":"http://terminology.hl7.org/CodeSystem/measure-population","code":"initial-population","display":"Initial Population"}]},"count":0},{"code":{"coding":[{"system":"http://terminology.hl7.org/CodeSystem/measure-population","code":"denominator","display":"Denominator"}]},"count":0},{"code":{"coding":[{"system":"http://terminology.hl7.org/CodeSystem/measure-population","code":"denominator-exclusion","display":"Denominator Exclusion"}]},"count":0},{"code":{"coding":[{"system":"http://terminology.hl7.org/CodeSystem/measure-population","code":"numerator","display":"Numerator"}]},"count":0},{"code":{"coding":[{"system":"http://terminology.hl7.org/CodeSystem/measure-population","code":"denominator-exception","display":"Denominator Exception"}]},"count":0}]}],"evaluatedResource":[{"reference":"Patient/c07491f9-662f-4d7e-8ed4-3ad32ca15a6e"},{"reference":"Encounter/a622feb0-ad4a-43e5-b9eb-540efccb314d"},{"reference":"Condition/2a7f1889-c952-4fa3-b94b-43b97f65e8ef"},{"reference":"Coverage/95b196ab-a905-441f-bdc6-4e4e06192d49"},{"reference":"Organization/bdc91a11-f6d1-4ba3-84ac-b486c4d4e660"}]},"request":{"method":"PUT","url":"MeasureReport/77edca79-a227-42e0-b697-63c40fed1338"}}]}