{"resourceType":"Bundle","id":"tests-94d381a5-ff91-407e-b1da-e0209c1b91d5-bundle","type":"transaction","entry":[{"fullUrl":"https://madie.cms.gov/Patient/94d381a5-ff91-407e-b1da-e0209c1b91d5","resource":{"resourceType":"Patient","id":"94d381a5-ff91-407e-b1da-e0209c1b91d5","meta":{"profile":["http://hl7.org/fhir/us/qicore/StructureDefinition/qicore-patient"]},"text":{"status":"generated","div":"<div xmlns=\"http://www.w3.org/1999/xhtml\"><div class=\"hapiHeaderText\">CMOdurEnc_ED&lt;1hrNoObsBFEnc <b>DENEXPASS </b></div><table class=\"hapiPropertyTable\"><tbody><tr><td>Identifier</td><td>5726f5c347f01d94789527cd3b0f9cc5</td></tr><tr><td>Date of birth</td><td><span>21 August 1994</span></td></tr></tbody></table></div>"},"extension":[{"url":"http://hl7.org/fhir/us/core/StructureDefinition/us-core-race","extension":[{"url":"ombCategory","valueCoding":{"system":"urn:oid:2.16.840.1.113883.6.238","code":"1002-5","display":"American Indian or Alaska Native","userSelected":true}},{"url":"text","valueString":"American Indian or Alaska Native"}]},{"url":"http://hl7.org/fhir/us/core/StructureDefinition/us-core-ethnicity","extension":[{"url":"ombCategory","valueCoding":{"system":"urn:oid:2.16.840.1.113883.6.238","code":"2135-2","display":"Hispanic or Latino","userSelected":true}},{"url":"text","valueString":"Hispanic or Latino"}]}],"identifier":[{"type":{"coding":[{"system":"http://terminology.hl7.org/CodeSystem/v2-0203","code":"MR"}]},"system":"https://bonnie-fhir.healthit.gov/","value":"6129134602c62a011f2e6d77"}],"active":true,"name":[{"use":"usual","family":"DENEXPass","given":["CMOdurEnc_ED<1hrNoObsBFEnc"]}],"gender":"male","birthDate":"1994-08-21"},"request":{"method":"PUT","url":"Patient/94d381a5-ff91-407e-b1da-e0209c1b91d5"}},{"fullUrl":"https://madie.cms.gov/Encounter/962580ec-1869-4ba6-bed7-5d738300f6aa","resource":{"resourceType":"Encounter","id":"962580ec-1869-4ba6-bed7-5d738300f6aa","meta":{"profile":["http://hl7.org/fhir/us/qicore/StructureDefinition/qicore-encounter"]},"status":"finished","class":{"system":"http://terminology.hl7.org/CodeSystem/v3-ActCode","code":"EMER","display":"emergency","userSelected":true},"type":[{"coding":[{"system":"http://snomed.info/sct","code":"4525004"}]}],"subject":{"reference":"Patient/94d381a5-ff91-407e-b1da-e0209c1b91d5"},"period":{"start":"2025-10-10T09:00:00.000+00:00","end":"2025-10-10T09:29:00.000+00:00"},"length":{"value":0,"unit":"days"}},"request":{"method":"PUT","url":"Encounter/962580ec-1869-4ba6-bed7-5d738300f6aa"}},{"fullUrl":"https://madie.cms.gov/Encounter/553aa3ac-4135-4442-9b02-f3d335b10af9","resource":{"resourceType":"Encounter","id":"553aa3ac-4135-4442-9b02-f3d335b10af9","meta":{"profile":["http://hl7.org/fhir/us/qicore/StructureDefinition/qicore-encounter"]},"status":"finished","class":{"system":"http://terminology.hl7.org/CodeSystem/v3-ActCode","code":"IMP","display":"inpatient encounter","userSelected":true},"type":[{"coding":[{"system":"http://snomed.info/sct","code":"32485007"}]}],"subject":{"reference":"Patient/94d381a5-ff91-407e-b1da-e0209c1b91d5"},"period":{"start":"2025-10-10T09:30:00.000+00:00","end":"2025-10-12T10:30:00.000+00:00"},"length":{"value":2,"unit":"days"},"diagnosis":[{"condition":{"reference":"Condition/b33f656f-ef23-46eb-9b97-bc7ae7564936"},"use":{"coding":[{"system":"http://terminology.hl7.org/CodeSystem/diagnosis-role","code":"billing","display":"Billing"}]},"rank":1}]},"request":{"method":"PUT","url":"Encounter/553aa3ac-4135-4442-9b02-f3d335b10af9"}},{"fullUrl":"https://madie.cms.gov/ServiceRequest/d198e174-acf8-421c-bc87-50f2c5d2ef34","resource":{"resourceType":"ServiceRequest","id":"d198e174-acf8-421c-bc87-50f2c5d2ef34","meta":{"profile":["http://hl7.org/fhir/us/qicore/StructureDefinition/qicore-servicerequest"]},"status":"active","intent":"order","code":{"coding":[{"system":"http://snomed.info/sct","code":"133918004"}]},"subject":{"reference":"Patient/94d381a5-ff91-407e-b1da-e0209c1b91d5"},"authoredOn":"2025-10-10T09:31:00.000+00:00"},"request":{"method":"PUT","url":"ServiceRequest/d198e174-acf8-421c-bc87-50f2c5d2ef34"}},{"fullUrl":"https://madie.cms.gov/Condition/b33f656f-ef23-46eb-9b97-bc7ae7564936","resource":{"resourceType":"Condition","id":"b33f656f-ef23-46eb-9b97-bc7ae7564936","meta":{"profile":["http://hl7.org/fhir/us/qicore/StructureDefinition/qicore-condition"]},"clinicalStatus":{"coding":[{"system":"http://terminology.hl7.org/CodeSystem/condition-clinical","code":"active"}]},"verificationStatus":{"coding":[{"system":"http://terminology.hl7.org/CodeSystem/condition-ver-status","code":"confirmed"}]},"category":[{"coding":[{"system":"http://terminology.hl7.org/CodeSystem/condition-category","code":"encounter-diagnosis","display":"Encounter Diagnosis"}]}],"code":{"coding":[{"system":"http://snomed.info/sct","version":"2020-09","code":"111297002","display":"Nonparalytic stroke (disorder)","userSelected":true}]},"subject":{"reference":"Patient/94d381a5-ff91-407e-b1da-e0209c1b91d5"},"recordedDate":"2025-07-14T08:00:00.000+00:00"},"request":{"method":"PUT","url":"Condition/b33f656f-ef23-46eb-9b97-bc7ae7564936"}},{"fullUrl":"https://madie.cms.gov/Coverage/69c632fb-d49c-4f74-8453-2dd640f1edc2","resource":{"resourceType":"Coverage","id":"69c632fb-d49c-4f74-8453-2dd640f1edc2","meta":{"profile":["http://hl7.org/fhir/us/qicore/StructureDefinition/qicore-coverage"]},"status":"active","beneficiary":{"reference":"Patient/94d381a5-ff91-407e-b1da-e0209c1b91d5"},"payor":[{"reference":"Organization/d92a9957-0241-4ee2-af15-c8a092a3566a"}]},"request":{"method":"PUT","url":"Coverage/69c632fb-d49c-4f74-8453-2dd640f1edc2"}},{"fullUrl":"https://madie.cms.gov/Organization/d92a9957-0241-4ee2-af15-c8a092a3566a","resource":{"resourceType":"Organization","id":"d92a9957-0241-4ee2-af15-c8a092a3566a","meta":{"profile":["http://hl7.org/fhir/us/qicore/StructureDefinition/qicore-organization"]},"identifier":[{"use":"temp","system":"urn:oid:2.16.840.1.113883.4.4","value":"21-3259825"}],"active":true,"type":[{"coding":[{"system":"http://terminology.hl7.org/CodeSystem/organization-type","code":"pay","display":"Payer"}]}],"name":"Blue Cross Blue Shield of Texas","telecom":[{"system":"phone","value":"(+1) 972-766-6900"}],"address":[{"use":"billing","type":"postal","line":["P.O. Box 660044"],"city":"Dallas","state":"TX","postalCode":"75266-0044","country":"USA"}]},"request":{"method":"PUT","url":"Organization/d92a9957-0241-4ee2-af15-c8a092a3566a"}},{"fullUrl":"https://madie.cms.gov/MeasureReport/b3958189-a77d-426f-afaa-6d08da6f137f","resource":{"resourceType":"MeasureReport","id":"b3958189-a77d-426f-afaa-6d08da6f137f","meta":{"profile":["http://hl7.org/fhir/us/cqfmeasures/StructureDefinition/test-case-cqfm"]},"contained":[{"resourceType":"Parameters","id":"ea8d261f-39be-45d1-aa8d-798fcc534165-parameters","parameter":[{"name":"subject","valueString":"94d381a5-ff91-407e-b1da-e0209c1b91d5"}]}],"extension":[{"url":"http://hl7.org/fhir/us/cqfmeasures/StructureDefinition/cqfm-inputParameters","valueReference":{"reference":"#ea8d261f-39be-45d1-aa8d-798fcc534165-parameters"}},{"url":"http://hl7.org/fhir/us/cqfmeasures/StructureDefinition/cqfm-testCaseDescription","valueMarkdown":"Patient receives CMO during inpatient encounter. ED ends 1 minute before inpatient encounter start. No Observation. Testing day of operator with HospitalizationWithObservation function."}],"modifierExtension":[{"url":"http://hl7.org/fhir/us/cqfmeasures/StructureDefinition/cqfm-isTestCase","valueBoolean":true}],"status":"complete","type":"individual","measure":"https://madie.cms.gov/Measure/DischargedonAntithromboticTherapyFHIR","period":{"start":"2025-01-01","end":"2025-12-31"},"group":[{"population":[{"code":{"coding":[{"system":"http://terminology.hl7.org/CodeSystem/measure-population","code":"initial-population","display":"Initial Population"}]},"count":1},{"code":{"coding":[{"system":"http://terminology.hl7.org/CodeSystem/measure-population","code":"denominator","display":"Denominator"}]},"count":1},{"code":{"coding":[{"system":"http://terminology.hl7.org/CodeSystem/measure-population","code":"denominator-exclusion","display":"Denominator Exclusion"}]},"count":1},{"code":{"coding":[{"system":"http://terminology.hl7.org/CodeSystem/measure-population","code":"numerator","display":"Numerator"}]},"count":0},{"code":{"coding":[{"system":"http://terminology.hl7.org/CodeSystem/measure-population","code":"denominator-exception","display":"Denominator Exception"}]},"count":0}]}],"evaluatedResource":[{"reference":"Patient/94d381a5-ff91-407e-b1da-e0209c1b91d5"},{"reference":"Encounter/962580ec-1869-4ba6-bed7-5d738300f6aa"},{"reference":"Encounter/553aa3ac-4135-4442-9b02-f3d335b10af9"},{"reference":"ServiceRequest/d198e174-acf8-421c-bc87-50f2c5d2ef34"},{"reference":"Condition/b33f656f-ef23-46eb-9b97-bc7ae7564936"},{"reference":"Coverage/69c632fb-d49c-4f74-8453-2dd640f1edc2"},{"reference":"Organization/d92a9957-0241-4ee2-af15-c8a092a3566a"}]},"request":{"method":"PUT","url":"MeasureReport/b3958189-a77d-426f-afaa-6d08da6f137f"}}]}