{"resourceType":"Bundle","id":"tests-36a1247f-35d7-4c3e-98cd-9d78916bcdc2-bundle","type":"transaction","entry":[{"fullUrl":"https://madie.cms.gov/Patient/36a1247f-35d7-4c3e-98cd-9d78916bcdc2","resource":{"resourceType":"Patient","id":"36a1247f-35d7-4c3e-98cd-9d78916bcdc2","meta":{"profile":["http://hl7.org/fhir/us/qicore/StructureDefinition/qicore-patient"]},"text":{"status":"generated","div":"<div xmlns=\"http://www.w3.org/1999/xhtml\"><div class=\"hapiHeaderText\">MedDscPatRsnDTimeEQEncStartTime <b>DENEXCEPPASS </b></div><table class=\"hapiPropertyTable\"><tbody><tr><td>Identifier</td><td>f27996c6545ea958dc5266f6c01bdf6c</td></tr><tr><td>Date of birth</td><td><span>21 August 1994</span></td></tr></tbody></table></div>"},"extension":[{"url":"http://hl7.org/fhir/us/core/StructureDefinition/us-core-race","extension":[{"url":"ombCategory","valueCoding":{"system":"urn:oid:2.16.840.1.113883.6.238","code":"1002-5","display":"American Indian or Alaska Native","userSelected":true}},{"url":"text","valueString":"American Indian or Alaska Native"}]},{"url":"http://hl7.org/fhir/us/core/StructureDefinition/us-core-ethnicity","extension":[{"url":"ombCategory","valueCoding":{"system":"urn:oid:2.16.840.1.113883.6.238","code":"2135-2","display":"Hispanic or Latino","userSelected":true}},{"url":"text","valueString":"Hispanic or Latino"}]}],"identifier":[{"type":{"coding":[{"system":"http://terminology.hl7.org/CodeSystem/v2-0203","code":"MR"}]},"system":"https://bonnie-fhir.healthit.gov/","value":"6129131902c62a011f2e5b40"}],"active":true,"name":[{"use":"usual","family":"DENEXCEPPass","given":["MedDscPatRsnDTimeEQEncStartTime"]}],"gender":"male","birthDate":"1994-08-21"},"request":{"method":"PUT","url":"Patient/36a1247f-35d7-4c3e-98cd-9d78916bcdc2"}},{"fullUrl":"https://madie.cms.gov/Encounter/ae675b15-871f-4802-b09e-2fc99d9dfe45","resource":{"resourceType":"Encounter","id":"ae675b15-871f-4802-b09e-2fc99d9dfe45","meta":{"profile":["http://hl7.org/fhir/us/qicore/StructureDefinition/qicore-encounter"]},"status":"finished","class":{"system":"http://terminology.hl7.org/CodeSystem/v3-ActCode","code":"IMP","display":"inpatient encounter","userSelected":true},"type":[{"coding":[{"system":"http://snomed.info/sct","code":"32485007"}]}],"subject":{"reference":"Patient/36a1247f-35d7-4c3e-98cd-9d78916bcdc2"},"period":{"start":"2025-10-10T09:30:00.000+00:00","end":"2025-10-12T10:30:00.000+00:00"},"length":{"value":2,"unit":"days"},"diagnosis":[{"condition":{"reference":"Condition/c33443cd-c50d-443c-8f20-13dfa4f14219"},"use":{"coding":[{"system":"http://terminology.hl7.org/CodeSystem/diagnosis-role","code":"billing","display":"Billing"}]},"rank":1}]},"request":{"method":"PUT","url":"Encounter/ae675b15-871f-4802-b09e-2fc99d9dfe45"}},{"fullUrl":"https://madie.cms.gov/MedicationRequest/c7766663-76ab-4289-848c-e41e28994929","resource":{"resourceType":"MedicationRequest","id":"c7766663-76ab-4289-848c-e41e28994929","meta":{"profile":["http://hl7.org/fhir/us/qicore/StructureDefinition/qicore-mednotrequested"]},"extension":[{"url":"http://hl7.org/fhir/us/qicore/StructureDefinition/qicore-medicationnotrequested","valueCodeableConcept":{"coding":[{"system":"http://www.nlm.nih.gov/research/umls/rxnorm","code":"1037045","display":"dabigatran etexilate 150 MG Oral Capsule","userSelected":true}]}}],"status":"completed","intent":"order","category":[{"coding":[{"system":"http://terminology.hl7.org/CodeSystem/medicationrequest-category","code":"community"}]}],"doNotPerform":true,"medicationCodeableConcept":{"coding":[{"system":"http://www.nlm.nih.gov/research/umls/rxnorm","code":"1037045","display":"dabigatran etexilate 150 MG Oral Capsule","userSelected":true}]},"subject":{"reference":"Patient/36a1247f-35d7-4c3e-98cd-9d78916bcdc2"},"authoredOn":"2025-10-09T09:30:00.000+00:00","requester":{"reference":"Practitioner/example"},"reasonCode":[{"coding":[{"system":"http://snomed.info/sct","code":"105480006","display":"Refusal of treatment by patient (situation)"}]}]},"request":{"method":"PUT","url":"MedicationRequest/c7766663-76ab-4289-848c-e41e28994929"}},{"fullUrl":"https://madie.cms.gov/Condition/c33443cd-c50d-443c-8f20-13dfa4f14219","resource":{"resourceType":"Condition","id":"c33443cd-c50d-443c-8f20-13dfa4f14219","meta":{"profile":["http://hl7.org/fhir/us/qicore/StructureDefinition/qicore-condition"]},"clinicalStatus":{"coding":[{"system":"http://terminology.hl7.org/CodeSystem/condition-clinical","code":"active"}]},"verificationStatus":{"coding":[{"system":"http://terminology.hl7.org/CodeSystem/condition-ver-status","code":"confirmed"}]},"category":[{"coding":[{"system":"http://terminology.hl7.org/CodeSystem/condition-category","code":"encounter-diagnosis","display":"Encounter Diagnosis"}]}],"code":{"coding":[{"system":"http://snomed.info/sct","version":"2020-09","code":"111297002","display":"Nonparalytic stroke (disorder)","userSelected":true}]},"subject":{"reference":"Patient/36a1247f-35d7-4c3e-98cd-9d78916bcdc2"},"recordedDate":"2025-07-13T08:00:00.000+00:00"},"request":{"method":"PUT","url":"Condition/c33443cd-c50d-443c-8f20-13dfa4f14219"}},{"fullUrl":"https://madie.cms.gov/Coverage/267eb486-1d27-4dda-a28e-6793f5f36c60","resource":{"resourceType":"Coverage","id":"267eb486-1d27-4dda-a28e-6793f5f36c60","meta":{"profile":["http://hl7.org/fhir/us/qicore/StructureDefinition/qicore-coverage"]},"status":"active","beneficiary":{"reference":"Patient/36a1247f-35d7-4c3e-98cd-9d78916bcdc2"},"payor":[{"reference":"Organization/df5d6fdb-b329-4f96-8c1b-2b25a9678ad5"}]},"request":{"method":"PUT","url":"Coverage/267eb486-1d27-4dda-a28e-6793f5f36c60"}},{"fullUrl":"https://madie.cms.gov/Organization/df5d6fdb-b329-4f96-8c1b-2b25a9678ad5","resource":{"resourceType":"Organization","id":"df5d6fdb-b329-4f96-8c1b-2b25a9678ad5","meta":{"profile":["http://hl7.org/fhir/us/qicore/StructureDefinition/qicore-organization"]},"identifier":[{"use":"temp","system":"urn:oid:2.16.840.1.113883.4.4","value":"21-3259825"}],"active":true,"type":[{"coding":[{"system":"http://terminology.hl7.org/CodeSystem/organization-type","code":"pay","display":"Payer"}]}],"name":"Blue Cross Blue Shield of Texas","telecom":[{"system":"phone","value":"(+1) 972-766-6900"}],"address":[{"use":"billing","type":"postal","line":["P.O. Box 660044"],"city":"Dallas","state":"TX","postalCode":"75266-0044","country":"USA"}]},"request":{"method":"PUT","url":"Organization/df5d6fdb-b329-4f96-8c1b-2b25a9678ad5"}},{"fullUrl":"https://madie.cms.gov/MeasureReport/ccc95956-2c27-49b7-bda6-466f06fb1e07","resource":{"resourceType":"MeasureReport","id":"ccc95956-2c27-49b7-bda6-466f06fb1e07","meta":{"profile":["http://hl7.org/fhir/us/cqfmeasures/StructureDefinition/test-case-cqfm"]},"contained":[{"resourceType":"Parameters","id":"7268668a-6bca-47bd-94fa-f937541ab83d-parameters","parameter":[{"name":"subject","valueString":"36a1247f-35d7-4c3e-98cd-9d78916bcdc2"}]}],"extension":[{"url":"http://hl7.org/fhir/us/cqfmeasures/StructureDefinition/cqfm-inputParameters","valueReference":{"reference":"#7268668a-6bca-47bd-94fa-f937541ab83d-parameters"}}],"modifierExtension":[{"url":"http://hl7.org/fhir/us/cqfmeasures/StructureDefinition/cqfm-isTestCase","valueBoolean":true}],"status":"complete","type":"individual","measure":"https://madie.cms.gov/Measure/DischargedonAntithromboticTherapyFHIR","period":{"start":"2025-01-01","end":"2025-12-31"},"group":[{"population":[{"code":{"coding":[{"system":"http://terminology.hl7.org/CodeSystem/measure-population","code":"initial-population","display":"Initial Population"}]},"count":1},{"code":{"coding":[{"system":"http://terminology.hl7.org/CodeSystem/measure-population","code":"denominator","display":"Denominator"}]},"count":1},{"code":{"coding":[{"system":"http://terminology.hl7.org/CodeSystem/measure-population","code":"denominator-exclusion","display":"Denominator Exclusion"}]},"count":0},{"code":{"coding":[{"system":"http://terminology.hl7.org/CodeSystem/measure-population","code":"numerator","display":"Numerator"}]},"count":0},{"code":{"coding":[{"system":"http://terminology.hl7.org/CodeSystem/measure-population","code":"denominator-exception","display":"Denominator Exception"}]},"count":0}]}],"evaluatedResource":[{"reference":"Patient/36a1247f-35d7-4c3e-98cd-9d78916bcdc2"},{"reference":"Encounter/ae675b15-871f-4802-b09e-2fc99d9dfe45"},{"reference":"MedicationRequest/c7766663-76ab-4289-848c-e41e28994929"},{"reference":"Condition/c33443cd-c50d-443c-8f20-13dfa4f14219"},{"reference":"Coverage/267eb486-1d27-4dda-a28e-6793f5f36c60"},{"reference":"Organization/df5d6fdb-b329-4f96-8c1b-2b25a9678ad5"}]},"request":{"method":"PUT","url":"MeasureReport/ccc95956-2c27-49b7-bda6-466f06fb1e07"}}]}