{"resourceType":"Bundle","id":"tests-c6f3b118-474a-41d3-b974-7f1d491b76b4-bundle","type":"transaction","entry":[{"fullUrl":"https://madie.cms.gov/Patient/c6f3b118-474a-41d3-b974-7f1d491b76b4","resource":{"resourceType":"Patient","id":"c6f3b118-474a-41d3-b974-7f1d491b76b4","meta":{"profile":["http://hl7.org/fhir/us/qicore/StructureDefinition/qicore-patient"]},"text":{"status":"generated","div":"<div xmlns=\"http://www.w3.org/1999/xhtml\"><div class=\"hapiHeaderText\">CMOdurEnc_ED=1hrObs=1hrBFEnc <b>DENEXPASS </b></div><table class=\"hapiPropertyTable\"><tbody><tr><td>Identifier</td><td>2d91ceeba148db3c346267cbc6c1af8c</td></tr><tr><td>Date of birth</td><td><span>21 August 1994</span></td></tr></tbody></table></div>"},"extension":[{"url":"http://hl7.org/fhir/us/core/StructureDefinition/us-core-race","extension":[{"url":"ombCategory","valueCoding":{"system":"urn:oid:2.16.840.1.113883.6.238","code":"1002-5","display":"American Indian or Alaska Native","userSelected":true}},{"url":"text","valueString":"American Indian or Alaska Native"}]},{"url":"http://hl7.org/fhir/us/core/StructureDefinition/us-core-ethnicity","extension":[{"url":"ombCategory","valueCoding":{"system":"urn:oid:2.16.840.1.113883.6.238","code":"2135-2","display":"Hispanic or Latino","userSelected":true}},{"url":"text","valueString":"Hispanic or Latino"}]}],"identifier":[{"type":{"coding":[{"system":"http://terminology.hl7.org/CodeSystem/v2-0203","code":"MR"}]},"system":"https://bonnie-fhir.healthit.gov/","value":"6129132e02c62a011f2e636e"}],"active":true,"name":[{"use":"usual","family":"DENEXPass","given":["CMOdurEnc_ED=1hrObs=1hrBFEnc"]}],"gender":"male","birthDate":"1994-08-21"},"request":{"method":"PUT","url":"Patient/c6f3b118-474a-41d3-b974-7f1d491b76b4"}},{"fullUrl":"https://madie.cms.gov/Encounter/2e5d27dc-9713-4a00-ab7a-7364e48cbb7d","resource":{"resourceType":"Encounter","id":"2e5d27dc-9713-4a00-ab7a-7364e48cbb7d","meta":{"profile":["http://hl7.org/fhir/us/qicore/StructureDefinition/qicore-encounter"]},"status":"finished","class":{"system":"http://terminology.hl7.org/CodeSystem/v3-ActCode","code":"EMER","display":"emergency","userSelected":true},"type":[{"coding":[{"system":"http://snomed.info/sct","code":"4525004"}]}],"subject":{"reference":"Patient/c6f3b118-474a-41d3-b974-7f1d491b76b4"},"period":{"start":"2025-10-09T08:00:00.000+00:00","end":"2025-10-09T08:15:00.000+00:00"},"length":{"value":0,"unit":"days"}},"request":{"method":"PUT","url":"Encounter/2e5d27dc-9713-4a00-ab7a-7364e48cbb7d"}},{"fullUrl":"https://madie.cms.gov/Encounter/d0eb0a11-579a-43df-987c-dbad88d447fe","resource":{"resourceType":"Encounter","id":"d0eb0a11-579a-43df-987c-dbad88d447fe","meta":{"profile":["http://hl7.org/fhir/us/qicore/StructureDefinition/qicore-encounter"]},"status":"finished","class":{"system":"http://terminology.hl7.org/CodeSystem/v3-ActCode","code":"OBSENC","display":"observation encounter","userSelected":true},"type":[{"coding":[{"system":"http://snomed.info/sct","code":"448851000124103"}]}],"subject":{"reference":"Patient/c6f3b118-474a-41d3-b974-7f1d491b76b4"},"period":{"start":"2025-10-09T09:15:00.000+00:00","end":"2025-10-09T09:30:00.000+00:00"},"length":{"value":0,"unit":"days"}},"request":{"method":"PUT","url":"Encounter/d0eb0a11-579a-43df-987c-dbad88d447fe"}},{"fullUrl":"https://madie.cms.gov/Encounter/1105fe55-8857-4af0-aafc-bc41e4f8924f","resource":{"resourceType":"Encounter","id":"1105fe55-8857-4af0-aafc-bc41e4f8924f","meta":{"profile":["http://hl7.org/fhir/us/qicore/StructureDefinition/qicore-encounter"]},"status":"finished","class":{"system":"http://terminology.hl7.org/CodeSystem/v3-ActCode","code":"IMP","display":"inpatient encounter","userSelected":true},"type":[{"coding":[{"system":"http://snomed.info/sct","code":"32485007"}]}],"subject":{"reference":"Patient/c6f3b118-474a-41d3-b974-7f1d491b76b4"},"period":{"start":"2025-10-10T10:30:00.000+00:00","end":"2025-10-12T10:30:00.000+00:00"},"length":{"value":2,"unit":"days"},"diagnosis":[{"condition":{"reference":"Condition/21679a0d-b2ec-4c09-bead-2e86f0745731"},"use":{"coding":[{"system":"http://terminology.hl7.org/CodeSystem/diagnosis-role","code":"billing","display":"Billing"}]},"rank":1}]},"request":{"method":"PUT","url":"Encounter/1105fe55-8857-4af0-aafc-bc41e4f8924f"}},{"fullUrl":"https://madie.cms.gov/ServiceRequest/e9eb1f4d-c8be-42e6-9ac5-892bb200a128","resource":{"resourceType":"ServiceRequest","id":"e9eb1f4d-c8be-42e6-9ac5-892bb200a128","meta":{"profile":["http://hl7.org/fhir/us/qicore/StructureDefinition/qicore-servicerequest"]},"status":"active","intent":"order","code":{"coding":[{"system":"http://snomed.info/sct","code":"133918004"}]},"subject":{"reference":"Patient/c6f3b118-474a-41d3-b974-7f1d491b76b4"},"authoredOn":"2025-10-10T10:30:00.000+00:00"},"request":{"method":"PUT","url":"ServiceRequest/e9eb1f4d-c8be-42e6-9ac5-892bb200a128"}},{"fullUrl":"https://madie.cms.gov/Condition/21679a0d-b2ec-4c09-bead-2e86f0745731","resource":{"resourceType":"Condition","id":"21679a0d-b2ec-4c09-bead-2e86f0745731","meta":{"profile":["http://hl7.org/fhir/us/qicore/StructureDefinition/qicore-condition"]},"clinicalStatus":{"coding":[{"system":"http://terminology.hl7.org/CodeSystem/condition-clinical","code":"active"}]},"verificationStatus":{"coding":[{"system":"http://terminology.hl7.org/CodeSystem/condition-ver-status","code":"confirmed"}]},"category":[{"coding":[{"system":"http://terminology.hl7.org/CodeSystem/condition-category","code":"encounter-diagnosis","display":"Encounter Diagnosis"}]}],"code":{"coding":[{"system":"http://snomed.info/sct","version":"2020-09","code":"111297002","display":"Nonparalytic stroke (disorder)","userSelected":true}]},"subject":{"reference":"Patient/c6f3b118-474a-41d3-b974-7f1d491b76b4"},"recordedDate":"2025-07-14T08:00:00.000+00:00"},"request":{"method":"PUT","url":"Condition/21679a0d-b2ec-4c09-bead-2e86f0745731"}},{"fullUrl":"https://madie.cms.gov/Coverage/1e9b04ef-87f6-4956-b1ca-5f11bd9f4620","resource":{"resourceType":"Coverage","id":"1e9b04ef-87f6-4956-b1ca-5f11bd9f4620","meta":{"profile":["http://hl7.org/fhir/us/qicore/StructureDefinition/qicore-coverage"]},"status":"active","beneficiary":{"reference":"Patient/c6f3b118-474a-41d3-b974-7f1d491b76b4"},"payor":[{"reference":"Organization/44e305eb-616a-42d4-95ae-444cec740d85"}]},"request":{"method":"PUT","url":"Coverage/1e9b04ef-87f6-4956-b1ca-5f11bd9f4620"}},{"fullUrl":"https://madie.cms.gov/Organization/44e305eb-616a-42d4-95ae-444cec740d85","resource":{"resourceType":"Organization","id":"44e305eb-616a-42d4-95ae-444cec740d85","meta":{"profile":["http://hl7.org/fhir/us/qicore/StructureDefinition/qicore-organization"]},"identifier":[{"use":"temp","system":"urn:oid:2.16.840.1.113883.4.4","value":"21-3259825"}],"active":true,"type":[{"coding":[{"system":"http://terminology.hl7.org/CodeSystem/organization-type","code":"pay","display":"Payer"}]}],"name":"Blue Cross Blue Shield of Texas","telecom":[{"system":"phone","value":"(+1) 972-766-6900"}],"address":[{"use":"billing","type":"postal","line":["P.O. Box 660044"],"city":"Dallas","state":"TX","postalCode":"75266-0044","country":"USA"}]},"request":{"method":"PUT","url":"Organization/44e305eb-616a-42d4-95ae-444cec740d85"}},{"fullUrl":"https://madie.cms.gov/MeasureReport/5637c299-c7b2-4bca-83d1-79b5e9867a40","resource":{"resourceType":"MeasureReport","id":"5637c299-c7b2-4bca-83d1-79b5e9867a40","meta":{"profile":["http://hl7.org/fhir/us/cqfmeasures/StructureDefinition/test-case-cqfm"]},"contained":[{"resourceType":"Parameters","id":"d28488b8-9209-4e16-84df-09e9f7a41894-parameters","parameter":[{"name":"subject","valueString":"c6f3b118-474a-41d3-b974-7f1d491b76b4"}]}],"extension":[{"url":"http://hl7.org/fhir/us/cqfmeasures/StructureDefinition/cqfm-inputParameters","valueReference":{"reference":"#d28488b8-9209-4e16-84df-09e9f7a41894-parameters"}},{"url":"http://hl7.org/fhir/us/cqfmeasures/StructureDefinition/cqfm-testCaseDescription","valueMarkdown":"Patient receives CMO during inpatient encounter. ED ends 60 minutes before observation. Obs ends 60 min before inpatient encounter start. Testing day of operator with HospitalizationWithObservation function."}],"modifierExtension":[{"url":"http://hl7.org/fhir/us/cqfmeasures/StructureDefinition/cqfm-isTestCase","valueBoolean":true}],"status":"complete","type":"individual","measure":"https://madie.cms.gov/Measure/DischargedonAntithromboticTherapyFHIR","period":{"start":"2025-01-01","end":"2025-12-31"},"group":[{"population":[{"code":{"coding":[{"system":"http://terminology.hl7.org/CodeSystem/measure-population","code":"initial-population","display":"Initial Population"}]},"count":1},{"code":{"coding":[{"system":"http://terminology.hl7.org/CodeSystem/measure-population","code":"denominator","display":"Denominator"}]},"count":1},{"code":{"coding":[{"system":"http://terminology.hl7.org/CodeSystem/measure-population","code":"denominator-exclusion","display":"Denominator Exclusion"}]},"count":1},{"code":{"coding":[{"system":"http://terminology.hl7.org/CodeSystem/measure-population","code":"numerator","display":"Numerator"}]},"count":0},{"code":{"coding":[{"system":"http://terminology.hl7.org/CodeSystem/measure-population","code":"denominator-exception","display":"Denominator Exception"}]},"count":0}]}],"evaluatedResource":[{"reference":"Patient/c6f3b118-474a-41d3-b974-7f1d491b76b4"},{"reference":"Encounter/2e5d27dc-9713-4a00-ab7a-7364e48cbb7d"},{"reference":"Encounter/d0eb0a11-579a-43df-987c-dbad88d447fe"},{"reference":"Encounter/1105fe55-8857-4af0-aafc-bc41e4f8924f"},{"reference":"ServiceRequest/e9eb1f4d-c8be-42e6-9ac5-892bb200a128"},{"reference":"Condition/21679a0d-b2ec-4c09-bead-2e86f0745731"},{"reference":"Coverage/1e9b04ef-87f6-4956-b1ca-5f11bd9f4620"},{"reference":"Organization/44e305eb-616a-42d4-95ae-444cec740d85"}]},"request":{"method":"PUT","url":"MeasureReport/5637c299-c7b2-4bca-83d1-79b5e9867a40"}}]}