{"resourceType":"Bundle","id":"tests-73d9c1a2-af41-4d32-85f3-0cd1f3ea2b5c-bundle","type":"transaction","entry":[{"fullUrl":"https://madie.cms.gov/Patient/73d9c1a2-af41-4d32-85f3-0cd1f3ea2b5c","resource":{"resourceType":"Patient","id":"73d9c1a2-af41-4d32-85f3-0cd1f3ea2b5c","meta":{"profile":["http://hl7.org/fhir/us/qicore/StructureDefinition/qicore-patient"]},"text":{"status":"generated","div":"<div xmlns=\"http://www.w3.org/1999/xhtml\"><div class=\"hapiHeaderText\">NonEleInpEncounter_AgeGT18LOSLT120Female <b>IPPASS </b></div><table class=\"hapiPropertyTable\"><tbody><tr><td>Identifier</td><td>98bbafa0f3f0ba2f58ea7c825e2454d6</td></tr><tr><td>Date of birth</td><td><span>20 August 1993</span></td></tr></tbody></table></div>"},"extension":[{"url":"http://hl7.org/fhir/us/core/StructureDefinition/us-core-race","extension":[{"url":"ombCategory","valueCoding":{"system":"urn:oid:2.16.840.1.113883.6.238","code":"1002-5","display":"American Indian or Alaska Native","userSelected":true}},{"url":"text","valueString":"American Indian or Alaska Native"}]},{"url":"http://hl7.org/fhir/us/core/StructureDefinition/us-core-ethnicity","extension":[{"url":"ombCategory","valueCoding":{"system":"urn:oid:2.16.840.1.113883.6.238","code":"2135-2","display":"Hispanic or Latino","userSelected":true}},{"url":"text","valueString":"Hispanic or Latino"}]}],"identifier":[{"type":{"coding":[{"system":"http://terminology.hl7.org/CodeSystem/v2-0203","code":"MR"}]},"system":"https://bonnie-fhir.healthit.gov/","value":"6129135a02c62a011f2e772d"}],"active":true,"name":[{"use":"usual","family":"IPPass","given":["NonEleInpEncounter_AgeGT18LOSLT120Female"]}],"gender":"female","birthDate":"2002-08-20"},"request":{"method":"PUT","url":"Patient/73d9c1a2-af41-4d32-85f3-0cd1f3ea2b5c"}},{"fullUrl":"https://madie.cms.gov/Encounter/566f5890-b25e-4cb7-a1d2-ba71343cde66","resource":{"resourceType":"Encounter","id":"566f5890-b25e-4cb7-a1d2-ba71343cde66","meta":{"profile":["http://hl7.org/fhir/us/qicore/StructureDefinition/qicore-encounter"]},"status":"finished","class":{"system":"http://terminology.hl7.org/CodeSystem/v3-ActCode","code":"IMP","display":"inpatient encounter","userSelected":true},"type":[{"coding":[{"system":"http://snomed.info/sct","code":"32485007"}]}],"subject":{"reference":"Patient/73d9c1a2-af41-4d32-85f3-0cd1f3ea2b5c"},"period":{"start":"2025-08-21T00:00:00.000+00:00","end":"2025-12-18T23:59:00.000+00:00"},"length":{"value":119,"unit":"days"},"diagnosis":[{"condition":{"reference":"Condition/ae291ec0-a582-4ac6-9922-afbe2a2a2c52"},"use":{"coding":[{"system":"http://terminology.hl7.org/CodeSystem/diagnosis-role","code":"billing","display":"Billing"}]},"rank":1}]},"request":{"method":"PUT","url":"Encounter/566f5890-b25e-4cb7-a1d2-ba71343cde66"}},{"fullUrl":"https://madie.cms.gov/Condition/ae291ec0-a582-4ac6-9922-afbe2a2a2c52","resource":{"resourceType":"Condition","id":"ae291ec0-a582-4ac6-9922-afbe2a2a2c52","meta":{"profile":["http://hl7.org/fhir/us/qicore/StructureDefinition/qicore-condition"]},"clinicalStatus":{"coding":[{"system":"http://terminology.hl7.org/CodeSystem/condition-clinical","code":"active"}]},"verificationStatus":{"coding":[{"system":"http://terminology.hl7.org/CodeSystem/condition-ver-status","code":"confirmed"}]},"category":[{"coding":[{"system":"http://terminology.hl7.org/CodeSystem/condition-category","code":"encounter-diagnosis","display":"Encounter Diagnosis"}]}],"code":{"coding":[{"system":"http://snomed.info/sct","version":"2020-09","code":"111297002","display":"Nonparalytic stroke (disorder)","userSelected":true}]},"subject":{"reference":"Patient/73d9c1a2-af41-4d32-85f3-0cd1f3ea2b5c"},"recordedDate":"2025-07-15T08:00:00.000+00:00"},"request":{"method":"PUT","url":"Condition/ae291ec0-a582-4ac6-9922-afbe2a2a2c52"}},{"fullUrl":"https://madie.cms.gov/Coverage/f555d5e3-ad31-4347-8c65-2e6518b6bef0","resource":{"resourceType":"Coverage","id":"f555d5e3-ad31-4347-8c65-2e6518b6bef0","meta":{"profile":["http://hl7.org/fhir/us/qicore/StructureDefinition/qicore-coverage"]},"status":"active","beneficiary":{"reference":"Patient/73d9c1a2-af41-4d32-85f3-0cd1f3ea2b5c"},"payor":[{"reference":"Organization/02b36d0f-b6f0-4cc7-b3bb-220be994a7ce"}]},"request":{"method":"PUT","url":"Coverage/f555d5e3-ad31-4347-8c65-2e6518b6bef0"}},{"fullUrl":"https://madie.cms.gov/Organization/02b36d0f-b6f0-4cc7-b3bb-220be994a7ce","resource":{"resourceType":"Organization","id":"02b36d0f-b6f0-4cc7-b3bb-220be994a7ce","meta":{"profile":["http://hl7.org/fhir/us/qicore/StructureDefinition/qicore-organization"]},"identifier":[{"use":"temp","system":"urn:oid:2.16.840.1.113883.4.4","value":"21-3259825"}],"active":true,"type":[{"coding":[{"system":"http://terminology.hl7.org/CodeSystem/organization-type","code":"pay","display":"Payer"}]}],"name":"Blue Cross Blue Shield of Texas","telecom":[{"system":"phone","value":"(+1) 972-766-6900"}],"address":[{"use":"billing","type":"postal","line":["P.O. Box 660044"],"city":"Dallas","state":"TX","postalCode":"75266-0044","country":"USA"}]},"request":{"method":"PUT","url":"Organization/02b36d0f-b6f0-4cc7-b3bb-220be994a7ce"}},{"fullUrl":"https://madie.cms.gov/MeasureReport/3a45145f-34d8-40e1-9c66-851e4cacd9fd","resource":{"resourceType":"MeasureReport","id":"3a45145f-34d8-40e1-9c66-851e4cacd9fd","meta":{"profile":["http://hl7.org/fhir/us/cqfmeasures/StructureDefinition/test-case-cqfm"]},"contained":[{"resourceType":"Parameters","id":"1522c8dc-3f1c-461f-9d1d-15364490c54c-parameters","parameter":[{"name":"subject","valueString":"73d9c1a2-af41-4d32-85f3-0cd1f3ea2b5c"}]}],"extension":[{"url":"http://hl7.org/fhir/us/cqfmeasures/StructureDefinition/cqfm-inputParameters","valueReference":{"reference":"#1522c8dc-3f1c-461f-9d1d-15364490c54c-parameters"}},{"url":"http://hl7.org/fhir/us/cqfmeasures/StructureDefinition/cqfm-testCaseDescription","valueMarkdown":"Patient is greater than 18 with Non-Elective Inpatient Encounter (LOS 119 days) with principal diagnosis of ischemic stroke ends during MP and is female.\n"}],"modifierExtension":[{"url":"http://hl7.org/fhir/us/cqfmeasures/StructureDefinition/cqfm-isTestCase","valueBoolean":true}],"status":"complete","type":"individual","measure":"https://madie.cms.gov/Measure/DischargedonAntithromboticTherapyFHIR","period":{"start":"2025-01-01","end":"2025-12-31"},"group":[{"population":[{"code":{"coding":[{"system":"http://terminology.hl7.org/CodeSystem/measure-population","code":"initial-population","display":"Initial Population"}]},"count":1},{"code":{"coding":[{"system":"http://terminology.hl7.org/CodeSystem/measure-population","code":"denominator","display":"Denominator"}]},"count":1},{"code":{"coding":[{"system":"http://terminology.hl7.org/CodeSystem/measure-population","code":"denominator-exclusion","display":"Denominator Exclusion"}]},"count":0},{"code":{"coding":[{"system":"http://terminology.hl7.org/CodeSystem/measure-population","code":"numerator","display":"Numerator"}]},"count":0},{"code":{"coding":[{"system":"http://terminology.hl7.org/CodeSystem/measure-population","code":"denominator-exception","display":"Denominator Exception"}]},"count":0}]}],"evaluatedResource":[{"reference":"Patient/73d9c1a2-af41-4d32-85f3-0cd1f3ea2b5c"},{"reference":"Encounter/566f5890-b25e-4cb7-a1d2-ba71343cde66"},{"reference":"Condition/ae291ec0-a582-4ac6-9922-afbe2a2a2c52"},{"reference":"Coverage/f555d5e3-ad31-4347-8c65-2e6518b6bef0"},{"reference":"Organization/02b36d0f-b6f0-4cc7-b3bb-220be994a7ce"}]},"request":{"method":"PUT","url":"MeasureReport/3a45145f-34d8-40e1-9c66-851e4cacd9fd"}}]}