{"resourceType":"Bundle","id":"tests-6af92c41-b897-4425-b16f-ad112ad44675-bundle","type":"transaction","entry":[{"fullUrl":"https://madie.cms.gov/Patient/6af92c41-b897-4425-b16f-ad112ad44675","resource":{"resourceType":"Patient","id":"6af92c41-b897-4425-b16f-ad112ad44675","meta":{"profile":["http://hl7.org/fhir/us/qicore/StructureDefinition/qicore-patient"]},"text":{"status":"generated","div":"<div xmlns=\"http://www.w3.org/1999/xhtml\"><div class=\"hapiHeaderText\">CMOdurObs_ED&gt;1hrObs&gt;1hrBFEnc <b>DENEXFAIL </b></div><table class=\"hapiPropertyTable\"><tbody><tr><td>Identifier</td><td>b295efb5520a7037dac313f631f555ba</td></tr><tr><td>Date of birth</td><td><span>21 August 1994</span></td></tr></tbody></table></div>"},"extension":[{"url":"http://hl7.org/fhir/us/core/StructureDefinition/us-core-race","extension":[{"url":"ombCategory","valueCoding":{"system":"urn:oid:2.16.840.1.113883.6.238","code":"1002-5","display":"American Indian or Alaska Native","userSelected":true}},{"url":"text","valueString":"American Indian or Alaska Native"}]},{"url":"http://hl7.org/fhir/us/core/StructureDefinition/us-core-ethnicity","extension":[{"url":"ombCategory","valueCoding":{"system":"urn:oid:2.16.840.1.113883.6.238","code":"2135-2","display":"Hispanic or Latino","userSelected":true}},{"url":"text","valueString":"Hispanic or Latino"}]}],"identifier":[{"type":{"coding":[{"system":"http://terminology.hl7.org/CodeSystem/v2-0203","code":"MR"}]},"system":"https://bonnie-fhir.healthit.gov/","value":"6129133f02c62a011f2e6ab0"}],"active":true,"name":[{"use":"usual","family":"DENEXFail","given":["CMOdurObs_ED>1hrObs>1hrBFEnc"]}],"gender":"male","birthDate":"1994-08-21"},"request":{"method":"PUT","url":"Patient/6af92c41-b897-4425-b16f-ad112ad44675"}},{"fullUrl":"https://madie.cms.gov/Encounter/c7c4826e-fde7-42db-abdf-4b317ba3789a","resource":{"resourceType":"Encounter","id":"c7c4826e-fde7-42db-abdf-4b317ba3789a","meta":{"profile":["http://hl7.org/fhir/us/qicore/StructureDefinition/qicore-encounter"]},"status":"finished","class":{"system":"http://terminology.hl7.org/CodeSystem/v3-ActCode","code":"EMER","display":"emergency","userSelected":true},"type":[{"coding":[{"system":"http://snomed.info/sct","code":"4525004"}]}],"subject":{"reference":"Patient/6af92c41-b897-4425-b16f-ad112ad44675"},"period":{"start":"2025-10-10T07:30:00.000+00:00","end":"2025-10-10T07:35:00.000+00:00"},"length":{"value":0,"unit":"days"}},"request":{"method":"PUT","url":"Encounter/c7c4826e-fde7-42db-abdf-4b317ba3789a"}},{"fullUrl":"https://madie.cms.gov/Encounter/b92769fd-b2e4-449c-8ff0-870d554e2b4c","resource":{"resourceType":"Encounter","id":"b92769fd-b2e4-449c-8ff0-870d554e2b4c","meta":{"profile":["http://hl7.org/fhir/us/qicore/StructureDefinition/qicore-encounter"]},"status":"finished","class":{"system":"http://terminology.hl7.org/CodeSystem/v3-ActCode","code":"OBSENC","display":"observation encounter","userSelected":true},"type":[{"coding":[{"system":"http://snomed.info/sct","code":"448851000124103"}]}],"subject":{"reference":"Patient/6af92c41-b897-4425-b16f-ad112ad44675"},"period":{"start":"2025-10-10T08:36:00.000+00:00","end":"2025-10-10T09:00:00.000+00:00"},"length":{"value":0,"unit":"days"}},"request":{"method":"PUT","url":"Encounter/b92769fd-b2e4-449c-8ff0-870d554e2b4c"}},{"fullUrl":"https://madie.cms.gov/Encounter/22ba1f6d-de78-4c9b-9dbe-8cc79fa6ec3f","resource":{"resourceType":"Encounter","id":"22ba1f6d-de78-4c9b-9dbe-8cc79fa6ec3f","meta":{"profile":["http://hl7.org/fhir/us/qicore/StructureDefinition/qicore-encounter"]},"status":"finished","class":{"system":"http://terminology.hl7.org/CodeSystem/v3-ActCode","code":"IMP","display":"inpatient encounter","userSelected":true},"type":[{"coding":[{"system":"http://snomed.info/sct","code":"32485007"}]}],"subject":{"reference":"Patient/6af92c41-b897-4425-b16f-ad112ad44675"},"period":{"start":"2025-10-10T10:01:00.000+00:00","end":"2025-10-12T10:30:00.000+00:00"},"length":{"value":2,"unit":"days"},"diagnosis":[{"condition":{"reference":"Condition/c34a6351-20df-40c1-a436-f3509e9b13d5"},"use":{"coding":[{"system":"http://terminology.hl7.org/CodeSystem/diagnosis-role","code":"billing","display":"Billing"}]},"rank":1}]},"request":{"method":"PUT","url":"Encounter/22ba1f6d-de78-4c9b-9dbe-8cc79fa6ec3f"}},{"fullUrl":"https://madie.cms.gov/ServiceRequest/020ab852-eb26-4b59-b042-0f344fc1480f","resource":{"resourceType":"ServiceRequest","id":"020ab852-eb26-4b59-b042-0f344fc1480f","meta":{"profile":["http://hl7.org/fhir/us/qicore/StructureDefinition/qicore-servicerequest"]},"status":"active","intent":"order","code":{"coding":[{"system":"http://snomed.info/sct","code":"133918004"}]},"subject":{"reference":"Patient/6af92c41-b897-4425-b16f-ad112ad44675"},"authoredOn":"2025-10-10T08:37:00.000+00:00"},"request":{"method":"PUT","url":"ServiceRequest/020ab852-eb26-4b59-b042-0f344fc1480f"}},{"fullUrl":"https://madie.cms.gov/Condition/c34a6351-20df-40c1-a436-f3509e9b13d5","resource":{"resourceType":"Condition","id":"c34a6351-20df-40c1-a436-f3509e9b13d5","meta":{"profile":["http://hl7.org/fhir/us/qicore/StructureDefinition/qicore-condition"]},"clinicalStatus":{"coding":[{"system":"http://terminology.hl7.org/CodeSystem/condition-clinical","code":"active"}]},"verificationStatus":{"coding":[{"system":"http://terminology.hl7.org/CodeSystem/condition-ver-status","code":"confirmed"}]},"category":[{"coding":[{"system":"http://terminology.hl7.org/CodeSystem/condition-category","code":"encounter-diagnosis","display":"Encounter Diagnosis"}]}],"code":{"coding":[{"system":"http://snomed.info/sct","version":"2020-09","code":"111297002","display":"Nonparalytic stroke (disorder)","userSelected":true}]},"subject":{"reference":"Patient/6af92c41-b897-4425-b16f-ad112ad44675"},"recordedDate":"2025-07-14T08:00:00.000+00:00"},"request":{"method":"PUT","url":"Condition/c34a6351-20df-40c1-a436-f3509e9b13d5"}},{"fullUrl":"https://madie.cms.gov/Coverage/2d8b8e3b-51fc-4c77-905e-1b23c2cdccc5","resource":{"resourceType":"Coverage","id":"2d8b8e3b-51fc-4c77-905e-1b23c2cdccc5","meta":{"profile":["http://hl7.org/fhir/us/qicore/StructureDefinition/qicore-coverage"]},"status":"active","beneficiary":{"reference":"Patient/6af92c41-b897-4425-b16f-ad112ad44675"},"payor":[{"reference":"Organization/5b86282b-0e84-46dd-848c-52e57aa90c80"}]},"request":{"method":"PUT","url":"Coverage/2d8b8e3b-51fc-4c77-905e-1b23c2cdccc5"}},{"fullUrl":"https://madie.cms.gov/Organization/5b86282b-0e84-46dd-848c-52e57aa90c80","resource":{"resourceType":"Organization","id":"5b86282b-0e84-46dd-848c-52e57aa90c80","meta":{"profile":["http://hl7.org/fhir/us/qicore/StructureDefinition/qicore-organization"]},"identifier":[{"use":"temp","system":"urn:oid:2.16.840.1.113883.4.4","value":"21-3259825"}],"active":true,"type":[{"coding":[{"system":"http://terminology.hl7.org/CodeSystem/organization-type","code":"pay","display":"Payer"}]}],"name":"Blue Cross Blue Shield of Texas","telecom":[{"system":"phone","value":"(+1) 972-766-6900"}],"address":[{"use":"billing","type":"postal","line":["P.O. Box 660044"],"city":"Dallas","state":"TX","postalCode":"75266-0044","country":"USA"}]},"request":{"method":"PUT","url":"Organization/5b86282b-0e84-46dd-848c-52e57aa90c80"}},{"fullUrl":"https://madie.cms.gov/MeasureReport/19cc40a2-ac87-45a8-9696-ea6d7d1a64a2","resource":{"resourceType":"MeasureReport","id":"19cc40a2-ac87-45a8-9696-ea6d7d1a64a2","meta":{"profile":["http://hl7.org/fhir/us/cqfmeasures/StructureDefinition/test-case-cqfm"]},"contained":[{"resourceType":"Parameters","id":"be15d3f7-d9f3-4aba-8f30-0b41f62147d5-parameters","parameter":[{"name":"subject","valueString":"6af92c41-b897-4425-b16f-ad112ad44675"}]}],"extension":[{"url":"http://hl7.org/fhir/us/cqfmeasures/StructureDefinition/cqfm-inputParameters","valueReference":{"reference":"#be15d3f7-d9f3-4aba-8f30-0b41f62147d5-parameters"}},{"url":"http://hl7.org/fhir/us/cqfmeasures/StructureDefinition/cqfm-testCaseDescription","valueMarkdown":"\"Patient receives CMO during observation. ED ends 61 minute before observation. Obs ends 61 min before inpatient encounter start. Testing day of operator with HospitalizationWithObservation function.\n\"\n"}],"modifierExtension":[{"url":"http://hl7.org/fhir/us/cqfmeasures/StructureDefinition/cqfm-isTestCase","valueBoolean":true}],"status":"complete","type":"individual","measure":"https://madie.cms.gov/Measure/DischargedonAntithromboticTherapyFHIR","period":{"start":"2025-01-01","end":"2025-12-31"},"group":[{"population":[{"code":{"coding":[{"system":"http://terminology.hl7.org/CodeSystem/measure-population","code":"initial-population","display":"Initial Population"}]},"count":1},{"code":{"coding":[{"system":"http://terminology.hl7.org/CodeSystem/measure-population","code":"denominator","display":"Denominator"}]},"count":1},{"code":{"coding":[{"system":"http://terminology.hl7.org/CodeSystem/measure-population","code":"denominator-exclusion","display":"Denominator Exclusion"}]},"count":0},{"code":{"coding":[{"system":"http://terminology.hl7.org/CodeSystem/measure-population","code":"numerator","display":"Numerator"}]},"count":0},{"code":{"coding":[{"system":"http://terminology.hl7.org/CodeSystem/measure-population","code":"denominator-exception","display":"Denominator Exception"}]},"count":0}]}],"evaluatedResource":[{"reference":"Patient/6af92c41-b897-4425-b16f-ad112ad44675"},{"reference":"Encounter/c7c4826e-fde7-42db-abdf-4b317ba3789a"},{"reference":"Encounter/b92769fd-b2e4-449c-8ff0-870d554e2b4c"},{"reference":"Encounter/22ba1f6d-de78-4c9b-9dbe-8cc79fa6ec3f"},{"reference":"ServiceRequest/020ab852-eb26-4b59-b042-0f344fc1480f"},{"reference":"Condition/c34a6351-20df-40c1-a436-f3509e9b13d5"},{"reference":"Coverage/2d8b8e3b-51fc-4c77-905e-1b23c2cdccc5"},{"reference":"Organization/5b86282b-0e84-46dd-848c-52e57aa90c80"}]},"request":{"method":"PUT","url":"MeasureReport/19cc40a2-ac87-45a8-9696-ea6d7d1a64a2"}}]}