{"resourceType":"Bundle","id":"tests-f54cb75f-b5e0-4f95-b8f4-1a7fffd82f68-bundle","type":"transaction","entry":[{"fullUrl":"https://madie.cms.gov/Patient/f54cb75f-b5e0-4f95-b8f4-1a7fffd82f68","resource":{"resourceType":"Patient","id":"f54cb75f-b5e0-4f95-b8f4-1a7fffd82f68","meta":{"profile":["http://hl7.org/fhir/us/qicore/StructureDefinition/qicore-patient"]},"text":{"status":"generated","div":"<div xmlns=\"http://www.w3.org/1999/xhtml\"><div class=\"hapiHeaderText\">MedRsnStartTmGTEncInpDischTm <b>DENEXCEPFAIL </b></div><table class=\"hapiPropertyTable\"><tbody><tr><td>Identifier</td><td>90beff5aa027ec8e827c5b3d5ad023ef</td></tr><tr><td>Date of birth</td><td><span>21 August 1994</span></td></tr></tbody></table></div>"},"extension":[{"url":"http://hl7.org/fhir/us/core/StructureDefinition/us-core-race","extension":[{"url":"ombCategory","valueCoding":{"system":"urn:oid:2.16.840.1.113883.6.238","code":"1002-5","display":"American Indian or Alaska Native","userSelected":true}},{"url":"text","valueString":"American Indian or Alaska Native"}]},{"url":"http://hl7.org/fhir/us/core/StructureDefinition/us-core-ethnicity","extension":[{"url":"ombCategory","valueCoding":{"system":"urn:oid:2.16.840.1.113883.6.238","code":"2135-2","display":"Hispanic or Latino","userSelected":true}},{"url":"text","valueString":"Hispanic or Latino"}]}],"identifier":[{"type":{"coding":[{"system":"http://terminology.hl7.org/CodeSystem/v2-0203","code":"MR"}]},"system":"https://bonnie-fhir.healthit.gov/","value":"DENEXCEPFailMedRsnStartTmGTEncInpDischTm"}],"active":true,"name":[{"use":"usual","family":"DENEXCEPFail","given":["MedRsnStartTmGTEncInpDischTm"]}],"gender":"male","birthDate":"2003-08-21"},"request":{"method":"PUT","url":"Patient/f54cb75f-b5e0-4f95-b8f4-1a7fffd82f68"}},{"fullUrl":"https://madie.cms.gov/Encounter/efa172aa-de03-4818-abc4-c845c6c68267","resource":{"resourceType":"Encounter","id":"efa172aa-de03-4818-abc4-c845c6c68267","meta":{"profile":["http://hl7.org/fhir/us/qicore/StructureDefinition/qicore-encounter"]},"status":"finished","class":{"system":"http://terminology.hl7.org/CodeSystem/v3-ActCode","code":"IMP","display":"inpatient encounter","userSelected":true},"type":[{"coding":[{"system":"http://snomed.info/sct","code":"32485007"}]}],"subject":{"reference":"Patient/f54cb75f-b5e0-4f95-b8f4-1a7fffd82f68"},"period":{"start":"2025-10-10T09:30:00.000+00:00","end":"2025-10-12T10:30:00.000+00:00"},"length":{"value":2,"unit":"days"},"diagnosis":[{"condition":{"reference":"Condition/c04a0fac-1b84-459a-a4ea-00bef4a3ec2f"},"use":{"coding":[{"system":"http://terminology.hl7.org/CodeSystem/diagnosis-role","code":"billing","display":"Billing"}]},"rank":1}]},"request":{"method":"PUT","url":"Encounter/efa172aa-de03-4818-abc4-c845c6c68267"}},{"fullUrl":"https://madie.cms.gov/MedicationRequest/5f31686e-2293-4edb-934c-575f0ed3a839","resource":{"resourceType":"MedicationRequest","id":"5f31686e-2293-4edb-934c-575f0ed3a839","meta":{"profile":["http://hl7.org/fhir/us/qicore/StructureDefinition/qicore-mednotrequested"]},"status":"completed","intent":"order","doNotPerform":true,"medicationCodeableConcept":{"coding":[{"system":"http://www.nlm.nih.gov/research/umls/rxnorm","code":"1037045"}]},"subject":{"reference":"Patient/f54cb75f-b5e0-4f95-b8f4-1a7fffd82f68"},"authoredOn":"2025-10-12T10:31:00+00:00","requester":{"reference":"Practitioner/example"},"reasonCode":[{"coding":[{"system":"http://snomed.info/sct","code":"183932001"}]}]},"request":{"method":"PUT","url":"MedicationRequest/5f31686e-2293-4edb-934c-575f0ed3a839"}},{"fullUrl":"https://madie.cms.gov/Condition/c04a0fac-1b84-459a-a4ea-00bef4a3ec2f","resource":{"resourceType":"Condition","id":"c04a0fac-1b84-459a-a4ea-00bef4a3ec2f","meta":{"profile":["http://hl7.org/fhir/us/qicore/StructureDefinition/qicore-condition"]},"clinicalStatus":{"coding":[{"system":"http://terminology.hl7.org/CodeSystem/condition-clinical","code":"active"}]},"verificationStatus":{"coding":[{"system":"http://terminology.hl7.org/CodeSystem/condition-ver-status","code":"confirmed"}]},"category":[{"coding":[{"system":"http://terminology.hl7.org/CodeSystem/condition-category","code":"encounter-diagnosis","display":"Encounter Diagnosis"}]}],"code":{"coding":[{"system":"http://snomed.info/sct","version":"2020-09","code":"111297002","display":"Nonparalytic stroke (disorder)","userSelected":true}]},"subject":{"reference":"Patient/f54cb75f-b5e0-4f95-b8f4-1a7fffd82f68"},"recordedDate":"2025-07-13T08:00:00.000+00:00"},"request":{"method":"PUT","url":"Condition/c04a0fac-1b84-459a-a4ea-00bef4a3ec2f"}},{"fullUrl":"https://madie.cms.gov/Coverage/03161ee5-d34a-44f5-973d-d953616d68be","resource":{"resourceType":"Coverage","id":"03161ee5-d34a-44f5-973d-d953616d68be","meta":{"profile":["http://hl7.org/fhir/us/qicore/StructureDefinition/qicore-coverage"]},"status":"active","type":{"coding":[{"system":"https://nahdo.org/sopt","code":"1","display":"MEDICARE"}]},"beneficiary":{"reference":"Patient/f54cb75f-b5e0-4f95-b8f4-1a7fffd82f68"},"payor":[{"reference":"Organization/70ed6751-62f8-4bbc-9a44-39149b45ff3c"}]},"request":{"method":"PUT","url":"Coverage/03161ee5-d34a-44f5-973d-d953616d68be"}},{"fullUrl":"https://madie.cms.gov/Organization/70ed6751-62f8-4bbc-9a44-39149b45ff3c","resource":{"resourceType":"Organization","id":"70ed6751-62f8-4bbc-9a44-39149b45ff3c","meta":{"profile":["http://hl7.org/fhir/us/qicore/StructureDefinition/qicore-organization"]},"identifier":[{"use":"temp","system":"urn:oid:2.16.840.1.113883.4.4","value":"21-3259825"}],"active":true,"type":[{"coding":[{"system":"http://terminology.hl7.org/CodeSystem/organization-type","code":"pay","display":"Payer"}]}],"name":"Blue Cross Blue Shield of Texas","telecom":[{"system":"phone","value":"(+1) 972-766-6900"}],"address":[{"use":"billing","type":"postal","line":["P.O. Box 660044"],"city":"Dallas","state":"TX","postalCode":"75266-0044","country":"USA"}]},"request":{"method":"PUT","url":"Organization/70ed6751-62f8-4bbc-9a44-39149b45ff3c"}},{"fullUrl":"https://madie.cms.gov/MeasureReport/77b3e544-4f3e-4817-affd-b0d7926d7300","resource":{"resourceType":"MeasureReport","id":"77b3e544-4f3e-4817-affd-b0d7926d7300","meta":{"profile":["http://hl7.org/fhir/us/cqfmeasures/StructureDefinition/test-case-cqfm"]},"contained":[{"resourceType":"Parameters","id":"e8deb13b-3492-45fa-aa7f-01f70d91d316-parameters","parameter":[{"name":"subject","valueString":"f54cb75f-b5e0-4f95-b8f4-1a7fffd82f68"}]}],"extension":[{"url":"http://hl7.org/fhir/us/cqfmeasures/StructureDefinition/cqfm-inputParameters","valueReference":{"reference":"#e8deb13b-3492-45fa-aa7f-01f70d91d316-parameters"}},{"url":"http://hl7.org/fhir/us/cqfmeasures/StructureDefinition/cqfm-testCaseDescription","valueMarkdown":"Patient does not get antithrombotic medication due to medical reasons after IP encounter. This case tests the timing boundary for den exception criteria. "}],"modifierExtension":[{"url":"http://hl7.org/fhir/us/cqfmeasures/StructureDefinition/cqfm-isTestCase","valueBoolean":true}],"status":"complete","type":"individual","measure":"https://madie.cms.gov/Measure/DischargedonAntithromboticTherapyFHIR","period":{"start":"2025-01-01","end":"2025-12-31"},"group":[{"population":[{"code":{"coding":[{"system":"http://terminology.hl7.org/CodeSystem/measure-population","code":"initial-population","display":"Initial Population"}]},"count":1},{"code":{"coding":[{"system":"http://terminology.hl7.org/CodeSystem/measure-population","code":"denominator","display":"Denominator"}]},"count":1},{"code":{"coding":[{"system":"http://terminology.hl7.org/CodeSystem/measure-population","code":"denominator-exclusion","display":"Denominator Exclusion"}]},"count":0},{"code":{"coding":[{"system":"http://terminology.hl7.org/CodeSystem/measure-population","code":"numerator","display":"Numerator"}]},"count":0},{"code":{"coding":[{"system":"http://terminology.hl7.org/CodeSystem/measure-population","code":"denominator-exception","display":"Denominator Exception"}]},"count":0}]}],"evaluatedResource":[{"reference":"Patient/f54cb75f-b5e0-4f95-b8f4-1a7fffd82f68"},{"reference":"Encounter/efa172aa-de03-4818-abc4-c845c6c68267"},{"reference":"MedicationRequest/5f31686e-2293-4edb-934c-575f0ed3a839"},{"reference":"Condition/c04a0fac-1b84-459a-a4ea-00bef4a3ec2f"},{"reference":"Coverage/03161ee5-d34a-44f5-973d-d953616d68be"},{"reference":"Organization/70ed6751-62f8-4bbc-9a44-39149b45ff3c"}]},"request":{"method":"PUT","url":"MeasureReport/77b3e544-4f3e-4817-affd-b0d7926d7300"}}]}