{"resourceType":"Bundle","id":"tests-8b094c12-a09e-4153-83b8-569b6e6ba50a-bundle","type":"transaction","entry":[{"fullUrl":"https://madie.cms.gov/Patient/8b094c12-a09e-4153-83b8-569b6e6ba50a","resource":{"resourceType":"Patient","id":"8b094c12-a09e-4153-83b8-569b6e6ba50a","meta":{"profile":["http://hl7.org/fhir/us/qicore/StructureDefinition/qicore-patient"]},"text":{"status":"generated","div":"<div xmlns=\"http://www.w3.org/1999/xhtml\"><div class=\"hapiHeaderText\">3Enc2WithAntithrombotic1WithExcep <b>NUMER&amp;DENEXCEPPASS- LCG </b></div><table class=\"hapiPropertyTable\"><tbody><tr><td>Identifier</td><td>be14f222c0646cc5d7ac050774528f5e42a5a6df28c00c64454006e7ac2a1af3</td></tr><tr><td>Date of birth</td><td><span>31 May 1989</span></td></tr></tbody></table></div>"},"extension":[{"url":"http://hl7.org/fhir/us/core/StructureDefinition/us-core-race","extension":[{"url":"ombCategory","valueCoding":{"system":"urn:oid:2.16.840.1.113883.6.238","code":"1002-5","display":"American Indian or Alaska Native","userSelected":true}},{"url":"text","valueString":"American Indian or Alaska Native"}]},{"url":"http://hl7.org/fhir/us/core/StructureDefinition/us-core-ethnicity","extension":[{"url":"ombCategory","valueCoding":{"system":"urn:oid:2.16.840.1.113883.6.238","code":"2135-2","display":"Hispanic or Latino","userSelected":true}},{"url":"text","valueString":"Hispanic or Latino"}]}],"identifier":[{"type":{"coding":[{"system":"http://terminology.hl7.org/CodeSystem/v2-0203","code":"MR"}]},"system":"https://bonnie-fhir.healthit.gov/","value":"6129135902c62a011f2e76dc"}],"active":true,"name":[{"use":"usual","family":"NUMER&DENEXCEPPass- LCG","given":["3Enc2WithAntithrombotic1WithExcep"]}],"gender":"male","birthDate":"1998-05-31"},"request":{"method":"PUT","url":"Patient/8b094c12-a09e-4153-83b8-569b6e6ba50a"}},{"fullUrl":"https://madie.cms.gov/Encounter/7fe4e0e0-f629-4475-ac59-339429bc9a69","resource":{"resourceType":"Encounter","id":"7fe4e0e0-f629-4475-ac59-339429bc9a69","meta":{"profile":["http://hl7.org/fhir/us/qicore/StructureDefinition/qicore-encounter"]},"status":"finished","class":{"system":"http://terminology.hl7.org/CodeSystem/v3-ActCode","code":"IMP","display":"inpatient encounter","userSelected":true},"type":[{"coding":[{"system":"http://snomed.info/sct","code":"183452005"}]}],"subject":{"reference":"Patient/8b094c12-a09e-4153-83b8-569b6e6ba50a"},"period":{"start":"2025-06-14T09:30:00.000+00:00","end":"2025-06-25T10:30:00.000+00:00"},"length":{"value":0,"unit":"days"},"diagnosis":[{"condition":{"reference":"Condition/b3f124ea-60f6-4e8c-89f1-a819ac3e8ee5"},"use":{"coding":[{"system":"http://terminology.hl7.org/CodeSystem/diagnosis-role","code":"billing","display":"Billing"}]},"rank":1}]},"request":{"method":"PUT","url":"Encounter/7fe4e0e0-f629-4475-ac59-339429bc9a69"}},{"fullUrl":"https://madie.cms.gov/Encounter/8ca4c678-7be4-4f8d-82ce-ca4e8f2dc1d2","resource":{"resourceType":"Encounter","id":"8ca4c678-7be4-4f8d-82ce-ca4e8f2dc1d2","meta":{"profile":["http://hl7.org/fhir/us/qicore/StructureDefinition/qicore-encounter"]},"status":"finished","class":{"system":"http://terminology.hl7.org/CodeSystem/v3-ActCode","code":"IMP","display":"inpatient encounter","userSelected":true},"type":[{"coding":[{"system":"http://snomed.info/sct","code":"32485007"}]}],"subject":{"reference":"Patient/8b094c12-a09e-4153-83b8-569b6e6ba50a"},"period":{"start":"2025-06-15T09:30:00.000+00:00","end":"2025-10-12T10:30:00.000+00:00"},"length":{"value":119,"unit":"days"},"diagnosis":[{"condition":{"reference":"Condition/7cc645d9-e9fb-4fee-936c-df18361a4bb3"},"use":{"coding":[{"system":"http://terminology.hl7.org/CodeSystem/diagnosis-role","code":"billing","display":"Billing"}]},"rank":1}]},"request":{"method":"PUT","url":"Encounter/8ca4c678-7be4-4f8d-82ce-ca4e8f2dc1d2"}},{"fullUrl":"https://madie.cms.gov/Encounter/0cd31ea4-9ba8-4259-b5ed-dee93e10e86a","resource":{"resourceType":"Encounter","id":"0cd31ea4-9ba8-4259-b5ed-dee93e10e86a","meta":{"profile":["http://hl7.org/fhir/us/qicore/StructureDefinition/qicore-encounter"]},"status":"finished","class":{"system":"http://terminology.hl7.org/CodeSystem/v3-ActCode","code":"IMP","display":"inpatient encounter","userSelected":true},"type":[{"coding":[{"system":"http://snomed.info/sct","code":"183452005"}]}],"subject":{"reference":"Patient/8b094c12-a09e-4153-83b8-569b6e6ba50a"},"period":{"start":"2025-01-15T11:00:00.000+00:00","end":"2025-01-20T22:15:00.000+00:00"},"diagnosis":[{"condition":{"reference":"Condition/f363af36-2b4e-4484-b18e-0603bd496d7b"},"use":{"coding":[{"system":"http://terminology.hl7.org/CodeSystem/diagnosis-role","code":"billing","display":"Billing"}]},"rank":1}]},"request":{"method":"PUT","url":"Encounter/0cd31ea4-9ba8-4259-b5ed-dee93e10e86a"}},{"fullUrl":"https://madie.cms.gov/MedicationRequest/69e39482-76d0-4165-82fa-d58831986bfe","resource":{"resourceType":"MedicationRequest","id":"69e39482-76d0-4165-82fa-d58831986bfe","meta":{"profile":["http://hl7.org/fhir/us/qicore/StructureDefinition/qicore-medicationrequest"]},"status":"active","intent":"order","category":[{"coding":[{"system":"http://terminology.hl7.org/CodeSystem/medicationrequest-category","code":"discharge","display":"Discharge","userSelected":true}]}],"medicationCodeableConcept":{"coding":[{"system":"http://www.nlm.nih.gov/research/umls/rxnorm","code":"1037045"}]},"subject":{"reference":"Patient/8b094c12-a09e-4153-83b8-569b6e6ba50a"},"authoredOn":"2025-10-10T10:00:00.000+00:00","requester":{"reference":"Practitioner/example"}},"request":{"method":"PUT","url":"MedicationRequest/69e39482-76d0-4165-82fa-d58831986bfe"}},{"fullUrl":"https://madie.cms.gov/MedicationRequest/9b0e3b3d-57b5-455c-9579-9532e6a8f33c","resource":{"resourceType":"MedicationRequest","id":"9b0e3b3d-57b5-455c-9579-9532e6a8f33c","meta":{"profile":["http://hl7.org/fhir/us/qicore/StructureDefinition/qicore-medicationrequest"]},"status":"active","intent":"order","category":[{"coding":[{"system":"http://terminology.hl7.org/CodeSystem/medicationrequest-category","code":"discharge","display":"Discharge","userSelected":true}]}],"medicationCodeableConcept":{"coding":[{"system":"http://www.nlm.nih.gov/research/umls/rxnorm","code":"1037045"}]},"subject":{"reference":"Patient/8b094c12-a09e-4153-83b8-569b6e6ba50a"},"authoredOn":"2025-06-14T09:30:00.000+00:00","requester":{"reference":"Practitioner/example"}},"request":{"method":"PUT","url":"MedicationRequest/9b0e3b3d-57b5-455c-9579-9532e6a8f33c"}},{"fullUrl":"https://madie.cms.gov/MedicationRequest/69b9a6ab-e39f-49b8-8947-18d4c276724f","resource":{"resourceType":"MedicationRequest","id":"69b9a6ab-e39f-49b8-8947-18d4c276724f","meta":{"profile":["http://hl7.org/fhir/us/qicore/StructureDefinition/qicore-medicationrequest"]},"status":"active","intent":"order","category":[{"coding":[{"system":"http://terminology.hl7.org/CodeSystem/medicationrequest-category","code":"discharge","display":"Discharge","userSelected":true}]}],"doNotPerform":false,"medicationCodeableConcept":{"coding":[{"system":"http://www.nlm.nih.gov/research/umls/rxnorm","code":"855812","display":"prasugrel 10 MG Oral Tablet","userSelected":true}]},"subject":{"reference":"Patient/8b094c12-a09e-4153-83b8-569b6e6ba50a"},"authoredOn":"2025-01-15T11:00:00.000+00:00","requester":{"reference":"Practitioner/example"}},"request":{"method":"PUT","url":"MedicationRequest/69b9a6ab-e39f-49b8-8947-18d4c276724f"}},{"fullUrl":"https://madie.cms.gov/Condition/b3f124ea-60f6-4e8c-89f1-a819ac3e8ee5","resource":{"resourceType":"Condition","id":"b3f124ea-60f6-4e8c-89f1-a819ac3e8ee5","meta":{"profile":["http://hl7.org/fhir/us/qicore/StructureDefinition/qicore-condition"]},"clinicalStatus":{"coding":[{"system":"http://terminology.hl7.org/CodeSystem/condition-clinical","code":"active"}]},"verificationStatus":{"coding":[{"system":"http://terminology.hl7.org/CodeSystem/condition-ver-status","code":"confirmed"}]},"category":[{"coding":[{"system":"http://terminology.hl7.org/CodeSystem/condition-category","code":"encounter-diagnosis","display":"Encounter Diagnosis"}]}],"code":{"coding":[{"system":"http://snomed.info/sct","version":"2020-09","code":"111297002","display":"Nonparalytic stroke (disorder)","userSelected":true}]},"subject":{"reference":"Patient/8b094c12-a09e-4153-83b8-569b6e6ba50a"},"recordedDate":"2025-07-15T08:00:00.000+00:00"},"request":{"method":"PUT","url":"Condition/b3f124ea-60f6-4e8c-89f1-a819ac3e8ee5"}},{"fullUrl":"https://madie.cms.gov/Condition/7cc645d9-e9fb-4fee-936c-df18361a4bb3","resource":{"resourceType":"Condition","id":"7cc645d9-e9fb-4fee-936c-df18361a4bb3","meta":{"profile":["http://hl7.org/fhir/us/qicore/StructureDefinition/qicore-condition"]},"clinicalStatus":{"coding":[{"system":"http://terminology.hl7.org/CodeSystem/condition-clinical","code":"active"}]},"verificationStatus":{"coding":[{"system":"http://terminology.hl7.org/CodeSystem/condition-ver-status","code":"confirmed"}]},"category":[{"coding":[{"system":"http://terminology.hl7.org/CodeSystem/condition-category","code":"encounter-diagnosis","display":"Encounter Diagnosis"}]}],"code":{"coding":[{"system":"http://snomed.info/sct","version":"2020-09","code":"111297002","display":"Nonparalytic stroke (disorder)","userSelected":true}]},"subject":{"reference":"Patient/8b094c12-a09e-4153-83b8-569b6e6ba50a"},"recordedDate":"2025-07-15T08:00:00.000+00:00"},"request":{"method":"PUT","url":"Condition/7cc645d9-e9fb-4fee-936c-df18361a4bb3"}},{"fullUrl":"https://madie.cms.gov/Condition/f363af36-2b4e-4484-b18e-0603bd496d7b","resource":{"resourceType":"Condition","id":"f363af36-2b4e-4484-b18e-0603bd496d7b","meta":{"profile":["http://hl7.org/fhir/us/qicore/StructureDefinition/qicore-condition"]},"clinicalStatus":{"coding":[{"system":"http://terminology.hl7.org/CodeSystem/condition-clinical","code":"active"}]},"verificationStatus":{"coding":[{"system":"http://terminology.hl7.org/CodeSystem/condition-ver-status","code":"confirmed"}]},"category":[{"coding":[{"system":"http://terminology.hl7.org/CodeSystem/condition-category","code":"encounter-diagnosis","display":"Encounter Diagnosis"}]}],"code":{"coding":[{"system":"http://snomed.info/sct","version":"2020-09","code":"111297002","display":"Nonparalytic stroke (disorder)","userSelected":true}]},"subject":{"reference":"Patient/8b094c12-a09e-4153-83b8-569b6e6ba50a"},"recordedDate":"2025-07-15T08:00:00.000+00:00"},"request":{"method":"PUT","url":"Condition/f363af36-2b4e-4484-b18e-0603bd496d7b"}},{"fullUrl":"https://madie.cms.gov/Coverage/ba5b30b8-870f-4e33-8825-62ba88b9458e","resource":{"resourceType":"Coverage","id":"ba5b30b8-870f-4e33-8825-62ba88b9458e","meta":{"profile":["http://hl7.org/fhir/us/qicore/StructureDefinition/qicore-coverage"]},"status":"active","beneficiary":{"reference":"Patient/8b094c12-a09e-4153-83b8-569b6e6ba50a"},"payor":[{"reference":"Organization/45ae8b64-d80b-42f6-a690-c89042bb9e7c"}]},"request":{"method":"PUT","url":"Coverage/ba5b30b8-870f-4e33-8825-62ba88b9458e"}},{"fullUrl":"https://madie.cms.gov/Organization/45ae8b64-d80b-42f6-a690-c89042bb9e7c","resource":{"resourceType":"Organization","id":"45ae8b64-d80b-42f6-a690-c89042bb9e7c","meta":{"profile":["http://hl7.org/fhir/us/qicore/StructureDefinition/qicore-organization"]},"identifier":[{"use":"temp","system":"urn:oid:2.16.840.1.113883.4.4","value":"21-3259825"}],"active":true,"type":[{"coding":[{"system":"http://terminology.hl7.org/CodeSystem/organization-type","code":"pay","display":"Payer"}]}],"name":"Blue Cross Blue Shield of Texas","telecom":[{"system":"phone","value":"(+1) 972-766-6900"}],"address":[{"use":"billing","type":"postal","line":["P.O. Box 660044"],"city":"Dallas","state":"TX","postalCode":"75266-0044","country":"USA"}]},"request":{"method":"PUT","url":"Organization/45ae8b64-d80b-42f6-a690-c89042bb9e7c"}},{"fullUrl":"https://madie.cms.gov/MeasureReport/ff7b9f56-9e5a-4c97-b2ca-32745cc41a7b","resource":{"resourceType":"MeasureReport","id":"ff7b9f56-9e5a-4c97-b2ca-32745cc41a7b","meta":{"profile":["http://hl7.org/fhir/us/cqfmeasures/StructureDefinition/test-case-cqfm"]},"contained":[{"resourceType":"Parameters","id":"c45a33df-3273-44a0-a601-a48691faa16e-parameters","parameter":[{"name":"subject","valueString":"8b094c12-a09e-4153-83b8-569b6e6ba50a"}]}],"extension":[{"url":"http://hl7.org/fhir/us/cqfmeasures/StructureDefinition/cqfm-inputParameters","valueReference":{"reference":"#c45a33df-3273-44a0-a601-a48691faa16e-parameters"}},{"url":"http://hl7.org/fhir/us/cqfmeasures/StructureDefinition/cqfm-testCaseDescription","valueMarkdown":"Patient is GT 18 with 2 Non-Elective Inpatient Encounter (LOS 120 days) with principal diagnosis of ischemic stroke ends during MP received antithrombotic during both IP encounter. \n"}],"modifierExtension":[{"url":"http://hl7.org/fhir/us/cqfmeasures/StructureDefinition/cqfm-isTestCase","valueBoolean":true}],"status":"complete","type":"individual","measure":"https://madie.cms.gov/Measure/DischargedonAntithromboticTherapyFHIR","period":{"start":"2025-01-01","end":"2025-12-31"},"group":[{"population":[{"code":{"coding":[{"system":"http://terminology.hl7.org/CodeSystem/measure-population","code":"initial-population","display":"Initial Population"}]},"count":3},{"code":{"coding":[{"system":"http://terminology.hl7.org/CodeSystem/measure-population","code":"denominator","display":"Denominator"}]},"count":3},{"code":{"coding":[{"system":"http://terminology.hl7.org/CodeSystem/measure-population","code":"denominator-exclusion","display":"Denominator Exclusion"}]},"count":0},{"code":{"coding":[{"system":"http://terminology.hl7.org/CodeSystem/measure-population","code":"numerator","display":"Numerator"}]},"count":2},{"code":{"coding":[{"system":"http://terminology.hl7.org/CodeSystem/measure-population","code":"denominator-exception","display":"Denominator Exception"}]},"count":1}]}],"evaluatedResource":[{"reference":"Patient/8b094c12-a09e-4153-83b8-569b6e6ba50a"},{"reference":"Encounter/7fe4e0e0-f629-4475-ac59-339429bc9a69"},{"reference":"Encounter/8ca4c678-7be4-4f8d-82ce-ca4e8f2dc1d2"},{"reference":"Encounter/0cd31ea4-9ba8-4259-b5ed-dee93e10e86a"},{"reference":"MedicationRequest/69e39482-76d0-4165-82fa-d58831986bfe"},{"reference":"MedicationRequest/9b0e3b3d-57b5-455c-9579-9532e6a8f33c"},{"reference":"MedicationRequest/69b9a6ab-e39f-49b8-8947-18d4c276724f"},{"reference":"Condition/b3f124ea-60f6-4e8c-89f1-a819ac3e8ee5"},{"reference":"Condition/7cc645d9-e9fb-4fee-936c-df18361a4bb3"},{"reference":"Condition/f363af36-2b4e-4484-b18e-0603bd496d7b"},{"reference":"Coverage/ba5b30b8-870f-4e33-8825-62ba88b9458e"},{"reference":"Organization/45ae8b64-d80b-42f6-a690-c89042bb9e7c"}]},"request":{"method":"PUT","url":"MeasureReport/ff7b9f56-9e5a-4c97-b2ca-32745cc41a7b"}}]}