{"resourceType":"Bundle","id":"tests-f566bd0d-e971-4e39-9389-032df88ef40b-bundle","type":"transaction","entry":[{"fullUrl":"https://madie.cms.gov/Patient/f566bd0d-e971-4e39-9389-032df88ef40b","resource":{"resourceType":"Patient","id":"f566bd0d-e971-4e39-9389-032df88ef40b","meta":{"profile":["http://hl7.org/fhir/us/qicore/StructureDefinition/qicore-patient"]},"text":{"status":"generated","div":"<div xmlns=\"http://www.w3.org/1999/xhtml\"><div class=\"hapiHeaderText\">CMOdurED_ED=1hrNoObsBFEnc <b>DENEXPASS </b></div><table class=\"hapiPropertyTable\"><tbody><tr><td>Identifier</td><td>670854918483ca8b7894283bd5cddbcf5037c5392991b8777bf3c4f78ed05f0b</td></tr><tr><td>Date of birth</td><td><span>18 September 1985</span></td></tr></tbody></table></div>"},"extension":[{"url":"http://hl7.org/fhir/us/core/StructureDefinition/us-core-race","extension":[{"url":"ombCategory","valueCoding":{"system":"urn:oid:2.16.840.1.113883.6.238","code":"1002-5","display":"American Indian or Alaska Native","userSelected":true}},{"url":"text","valueString":"American Indian or Alaska Native"}]},{"url":"http://hl7.org/fhir/us/core/StructureDefinition/us-core-ethnicity","extension":[{"url":"ombCategory","valueCoding":{"system":"urn:oid:2.16.840.1.113883.6.238","code":"2135-2","display":"Hispanic or Latino","userSelected":true}},{"url":"text","valueString":"Hispanic or Latino"}]}],"identifier":[{"type":{"coding":[{"system":"http://terminology.hl7.org/CodeSystem/v2-0203","code":"MR"}]},"system":"https://bonnie-fhir.healthit.gov/","value":"633c9d040968f8012250fca3"}],"active":true,"name":[{"use":"usual","family":"DENEXFail","given":["CMOdurEDEDEQ1hrNoObsBFEncdoNotPerform"]}],"gender":"female","birthDate":"1985-09-18"},"request":{"method":"PUT","url":"Patient/f566bd0d-e971-4e39-9389-032df88ef40b"}},{"fullUrl":"https://madie.cms.gov/Condition/ad300d64-9f76-4930-b827-868340c72076","resource":{"resourceType":"Condition","id":"ad300d64-9f76-4930-b827-868340c72076","meta":{"profile":["http://hl7.org/fhir/us/qicore/StructureDefinition/qicore-condition"]},"clinicalStatus":{"coding":[{"system":"http://terminology.hl7.org/CodeSystem/condition-clinical","code":"inactive"}]},"verificationStatus":{"coding":[{"system":"http://terminology.hl7.org/CodeSystem/condition-ver-status","code":"confirmed"}]},"category":[{"coding":[{"system":"http://terminology.hl7.org/CodeSystem/condition-category","code":"encounter-diagnosis","display":"Encounter Diagnosis"}]}],"code":{"coding":[{"system":"http://hl7.org/fhir/sid/icd-10-cm","code":"I48.20"},{"system":"http://hl7.org/fhir/sid/icd-10-cm","code":"I48.0"},{"system":"http://snomed.info/sct","code":"5370000"}]},"subject":{"reference":"Patient/f566bd0d-e971-4e39-9389-032df88ef40b"},"onsetDateTime":"2025-10-01T09:01:00.000Z","abatementDateTime":"2025-10-12T00:15:00.000Z"},"request":{"method":"PUT","url":"Condition/ad300d64-9f76-4930-b827-868340c72076"}},{"fullUrl":"https://madie.cms.gov/Encounter/ce43b349-2aba-4d76-b24e-11736dab13ee","resource":{"resourceType":"Encounter","id":"ce43b349-2aba-4d76-b24e-11736dab13ee","meta":{"profile":["http://hl7.org/fhir/us/qicore/StructureDefinition/qicore-encounter"]},"status":"finished","class":{"system":"http://terminology.hl7.org/CodeSystem/v3-ActCode","code":"EMER","display":"emergency"},"type":[{"coding":[{"system":"http://snomed.info/sct","code":"4525004"}]}],"subject":{"reference":"Patient/f566bd0d-e971-4e39-9389-032df88ef40b"},"period":{"start":"2025-10-01T09:01:00.000Z","end":"2025-10-01T12:15:00.000Z"},"length":{"value":0,"unit":"days"}},"request":{"method":"PUT","url":"Encounter/ce43b349-2aba-4d76-b24e-11736dab13ee"}},{"fullUrl":"https://madie.cms.gov/Encounter/226feba2-f737-40d8-ab3e-bfc4665a6b34","resource":{"resourceType":"Encounter","id":"226feba2-f737-40d8-ab3e-bfc4665a6b34","meta":{"profile":["http://hl7.org/fhir/us/qicore/StructureDefinition/qicore-encounter"]},"status":"finished","class":{"system":"http://terminology.hl7.org/CodeSystem/v3-ActCode","code":"IMP","display":"inpatient encounter"},"type":[{"coding":[{"system":"http://snomed.info/sct","code":"32485007"}]}],"subject":{"reference":"Patient/f566bd0d-e971-4e39-9389-032df88ef40b"},"period":{"start":"2025-10-01T13:15:00.000Z","end":"2025-10-12T00:15:00.000Z"},"length":{"value":11,"unit":"days"},"diagnosis":[{"condition":{"reference":"Condition/42502713-53fc-491f-a8ea-6ad933ad5f84"},"use":{"coding":[{"system":"http://terminology.hl7.org/CodeSystem/diagnosis-role","code":"billing","display":"Billing"}]},"rank":1}]},"request":{"method":"PUT","url":"Encounter/226feba2-f737-40d8-ab3e-bfc4665a6b34"}},{"fullUrl":"https://madie.cms.gov/ServiceRequest/fc1d3c3a-dfd4-4710-baeb-3e4d1c2046ca","resource":{"resourceType":"ServiceRequest","id":"fc1d3c3a-dfd4-4710-baeb-3e4d1c2046ca","meta":{"profile":["http://hl7.org/fhir/us/qicore/StructureDefinition/qicore-servicerequest"]},"status":"active","intent":"order","doNotPerform":false,"code":{"coding":[{"system":"http://snomed.info/sct","code":"133918004"}]},"subject":{"reference":"Patient/f566bd0d-e971-4e39-9389-032df88ef40b"},"authoredOn":"2025-10-01T09:15:00.000+00:00"},"request":{"method":"PUT","url":"ServiceRequest/fc1d3c3a-dfd4-4710-baeb-3e4d1c2046ca"}},{"fullUrl":"https://madie.cms.gov/Coverage/b9616dfd-bd15-4bb8-8819-2613cf7a3b26","resource":{"resourceType":"Coverage","id":"b9616dfd-bd15-4bb8-8819-2613cf7a3b26","status":"active","beneficiary":{"reference":"Patient/f566bd0d-e971-4e39-9389-032df88ef40b"},"period":{"start":"1985-09-18T08:00:00.000Z"},"payor":[{"reference":"Organization/4d97421d-d69f-464f-912c-f71396d88565"}]},"request":{"method":"PUT","url":"Coverage/b9616dfd-bd15-4bb8-8819-2613cf7a3b26"}},{"fullUrl":"https://madie.cms.gov/Condition/42502713-53fc-491f-a8ea-6ad933ad5f84","resource":{"resourceType":"Condition","id":"42502713-53fc-491f-a8ea-6ad933ad5f84","meta":{"profile":["http://hl7.org/fhir/us/qicore/StructureDefinition/qicore-condition"]},"clinicalStatus":{"coding":[{"system":"http://terminology.hl7.org/CodeSystem/condition-clinical","code":"active"}]},"verificationStatus":{"coding":[{"system":"http://terminology.hl7.org/CodeSystem/condition-ver-status","code":"confirmed"}]},"category":[{"coding":[{"system":"http://terminology.hl7.org/CodeSystem/condition-category","code":"encounter-diagnosis","display":"Encounter Diagnosis"}]}],"code":{"coding":[{"system":"http://snomed.info/sct","version":"2021-09","code":"111297002","display":"Nonparalytic stroke (disorder)","userSelected":true}]},"subject":{"reference":"Patient/f566bd0d-e971-4e39-9389-032df88ef40b"},"recordedDate":"2025-10-13T08:00:00.000+00:00"},"request":{"method":"PUT","url":"Condition/42502713-53fc-491f-a8ea-6ad933ad5f84"}},{"fullUrl":"https://madie.cms.gov/Organization/4d97421d-d69f-464f-912c-f71396d88565","resource":{"resourceType":"Organization","id":"4d97421d-d69f-464f-912c-f71396d88565","meta":{"profile":["http://hl7.org/fhir/us/qicore/StructureDefinition/qicore-organization"]},"identifier":[{"use":"temp","system":"urn:oid:2.16.840.1.113883.4.4","value":"21-3259825"}],"active":true,"type":[{"coding":[{"system":"http://terminology.hl7.org/CodeSystem/organization-type","code":"pay","display":"Payer"}]}],"name":"Blue Cross Blue Shield of Texas","telecom":[{"system":"phone","value":"(+1) 972-766-6900"}],"address":[{"use":"billing","type":"postal","line":["P.O. Box 660044"],"city":"Dallas","state":"TX","postalCode":"75266-0044","country":"USA"}]},"request":{"method":"PUT","url":"Organization/4d97421d-d69f-464f-912c-f71396d88565"}},{"fullUrl":"https://madie.cms.gov/Practitioner/68080111-1661-4968-928e-6b2d401efdb9","resource":{"resourceType":"Practitioner","id":"68080111-1661-4968-928e-6b2d401efdb9","identifier":[{"system":"http://hl7.org/fhir/sid/us-npi","value":"123456"}],"name":[{"family":"Evil","prefix":["Dr"]}]},"request":{"method":"PUT","url":"Practitioner/68080111-1661-4968-928e-6b2d401efdb9"}},{"fullUrl":"https://madie.cms.gov/MeasureReport/863f8e79-90a9-4f38-8a16-d57321b0333c","resource":{"resourceType":"MeasureReport","id":"863f8e79-90a9-4f38-8a16-d57321b0333c","meta":{"profile":["http://hl7.org/fhir/us/cqfmeasures/StructureDefinition/test-case-cqfm"]},"contained":[{"resourceType":"Parameters","id":"975faba7-ae22-425f-86be-c6d84a516868-parameters","parameter":[{"name":"subject","valueString":"f566bd0d-e971-4e39-9389-032df88ef40b"}]}],"extension":[{"url":"http://hl7.org/fhir/us/cqfmeasures/StructureDefinition/cqfm-inputParameters","valueReference":{"reference":"#975faba7-ae22-425f-86be-c6d84a516868-parameters"}},{"url":"http://hl7.org/fhir/us/cqfmeasures/StructureDefinition/cqfm-testCaseDescription","valueMarkdown":"Testing do not perform not true"}],"modifierExtension":[{"url":"http://hl7.org/fhir/us/cqfmeasures/StructureDefinition/cqfm-isTestCase","valueBoolean":true}],"status":"complete","type":"individual","measure":"https://madie.cms.gov/Measure/DischargedonAntithromboticTherapyFHIR","period":{"start":"2025-01-01","end":"2025-12-31"},"group":[{"population":[{"code":{"coding":[{"system":"http://terminology.hl7.org/CodeSystem/measure-population","code":"initial-population","display":"Initial Population"}]},"count":1},{"code":{"coding":[{"system":"http://terminology.hl7.org/CodeSystem/measure-population","code":"denominator","display":"Denominator"}]},"count":1},{"code":{"coding":[{"system":"http://terminology.hl7.org/CodeSystem/measure-population","code":"denominator-exclusion","display":"Denominator Exclusion"}]},"count":1},{"code":{"coding":[{"system":"http://terminology.hl7.org/CodeSystem/measure-population","code":"numerator","display":"Numerator"}]},"count":0},{"code":{"coding":[{"system":"http://terminology.hl7.org/CodeSystem/measure-population","code":"denominator-exception","display":"Denominator Exception"}]},"count":0}]}],"evaluatedResource":[{"reference":"Patient/f566bd0d-e971-4e39-9389-032df88ef40b"},{"reference":"Condition/ad300d64-9f76-4930-b827-868340c72076"},{"reference":"Encounter/ce43b349-2aba-4d76-b24e-11736dab13ee"},{"reference":"Encounter/226feba2-f737-40d8-ab3e-bfc4665a6b34"},{"reference":"ServiceRequest/fc1d3c3a-dfd4-4710-baeb-3e4d1c2046ca"},{"reference":"Coverage/b9616dfd-bd15-4bb8-8819-2613cf7a3b26"},{"reference":"Condition/42502713-53fc-491f-a8ea-6ad933ad5f84"},{"reference":"Organization/4d97421d-d69f-464f-912c-f71396d88565"},{"reference":"Practitioner/68080111-1661-4968-928e-6b2d401efdb9"}]},"request":{"method":"PUT","url":"MeasureReport/863f8e79-90a9-4f38-8a16-d57321b0333c"}}]}