{"resourceType":"Bundle","id":"tests-9759577e-5085-40f6-8e9e-8f16f817cc72-bundle","type":"transaction","entry":[{"fullUrl":"https://madie.cms.gov/Patient/9759577e-5085-40f6-8e9e-8f16f817cc72","resource":{"resourceType":"Patient","id":"9759577e-5085-40f6-8e9e-8f16f817cc72","meta":{"profile":["http://hl7.org/fhir/us/qicore/StructureDefinition/qicore-patient"]},"text":{"status":"generated","div":"<div xmlns=\"http://www.w3.org/1999/xhtml\"><div class=\"hapiHeaderText\">CMOdurEnc_ED&gt;1hrNoObsBFEnc <b>DENEXPASS </b></div><table class=\"hapiPropertyTable\"><tbody><tr><td>Identifier</td><td>496183456d67ef64425d16b4c0b60c8c</td></tr><tr><td>Date of birth</td><td><span>21 August 1994</span></td></tr></tbody></table></div>"},"extension":[{"url":"http://hl7.org/fhir/us/core/StructureDefinition/us-core-race","extension":[{"url":"ombCategory","valueCoding":{"system":"urn:oid:2.16.840.1.113883.6.238","code":"1002-5","display":"American Indian or Alaska Native","userSelected":true}},{"url":"text","valueString":"American Indian or Alaska Native"}]},{"url":"http://hl7.org/fhir/us/core/StructureDefinition/us-core-ethnicity","extension":[{"url":"ombCategory","valueCoding":{"system":"urn:oid:2.16.840.1.113883.6.238","code":"2135-2","display":"Hispanic or Latino","userSelected":true}},{"url":"text","valueString":"Hispanic or Latino"}]}],"identifier":[{"type":{"coding":[{"system":"http://terminology.hl7.org/CodeSystem/v2-0203","code":"MR"}]},"system":"https://bonnie-fhir.healthit.gov/","value":"6129134602c62a011f2e6de7"}],"active":true,"name":[{"use":"usual","family":"DENEXPass","given":["CMOdurEnc_ED>1hrNoObsBFEnc"]}],"gender":"male","birthDate":"1994-08-21"},"request":{"method":"PUT","url":"Patient/9759577e-5085-40f6-8e9e-8f16f817cc72"}},{"fullUrl":"https://madie.cms.gov/Encounter/c8eb280c-c661-4466-8359-729041672870","resource":{"resourceType":"Encounter","id":"c8eb280c-c661-4466-8359-729041672870","meta":{"profile":["http://hl7.org/fhir/us/qicore/StructureDefinition/qicore-encounter"]},"status":"finished","class":{"system":"http://terminology.hl7.org/CodeSystem/v3-ActCode","code":"EMER","display":"emergency","userSelected":true},"type":[{"coding":[{"system":"http://snomed.info/sct","code":"4525004"}]}],"subject":{"reference":"Patient/9759577e-5085-40f6-8e9e-8f16f817cc72"},"period":{"start":"2025-10-10T07:30:00.000+00:00","end":"2025-10-10T08:29:00.000+00:00"},"length":{"value":0,"unit":"days"}},"request":{"method":"PUT","url":"Encounter/c8eb280c-c661-4466-8359-729041672870"}},{"fullUrl":"https://madie.cms.gov/Encounter/d8354e0c-7410-475c-ba1e-8069362b0e31","resource":{"resourceType":"Encounter","id":"d8354e0c-7410-475c-ba1e-8069362b0e31","meta":{"profile":["http://hl7.org/fhir/us/qicore/StructureDefinition/qicore-encounter"]},"status":"finished","class":{"system":"http://terminology.hl7.org/CodeSystem/v3-ActCode","code":"IMP","display":"inpatient encounter","userSelected":true},"type":[{"coding":[{"system":"http://snomed.info/sct","code":"32485007"}]}],"subject":{"reference":"Patient/9759577e-5085-40f6-8e9e-8f16f817cc72"},"period":{"start":"2025-10-10T09:30:00.000+00:00","end":"2025-10-12T10:30:00.000+00:00"},"length":{"value":2,"unit":"days"},"diagnosis":[{"condition":{"reference":"Condition/620442a4-8f7d-4827-85d9-67fff58cedca"},"use":{"coding":[{"system":"http://terminology.hl7.org/CodeSystem/diagnosis-role","code":"billing","display":"Billing"}]},"rank":1}]},"request":{"method":"PUT","url":"Encounter/d8354e0c-7410-475c-ba1e-8069362b0e31"}},{"fullUrl":"https://madie.cms.gov/ServiceRequest/00fa0bb9-b8fc-4ca5-b214-d4115691a40e","resource":{"resourceType":"ServiceRequest","id":"00fa0bb9-b8fc-4ca5-b214-d4115691a40e","meta":{"profile":["http://hl7.org/fhir/us/qicore/StructureDefinition/qicore-servicerequest"]},"status":"active","intent":"order","code":{"coding":[{"system":"http://snomed.info/sct","code":"133918004"}]},"subject":{"reference":"Patient/9759577e-5085-40f6-8e9e-8f16f817cc72"},"authoredOn":"2025-10-10T09:31:00.000+00:00"},"request":{"method":"PUT","url":"ServiceRequest/00fa0bb9-b8fc-4ca5-b214-d4115691a40e"}},{"fullUrl":"https://madie.cms.gov/Condition/620442a4-8f7d-4827-85d9-67fff58cedca","resource":{"resourceType":"Condition","id":"620442a4-8f7d-4827-85d9-67fff58cedca","meta":{"profile":["http://hl7.org/fhir/us/qicore/StructureDefinition/qicore-condition"]},"clinicalStatus":{"coding":[{"system":"http://terminology.hl7.org/CodeSystem/condition-clinical","code":"active"}]},"verificationStatus":{"coding":[{"system":"http://terminology.hl7.org/CodeSystem/condition-ver-status","code":"confirmed"}]},"category":[{"coding":[{"system":"http://terminology.hl7.org/CodeSystem/condition-category","code":"encounter-diagnosis","display":"Encounter Diagnosis"}]}],"code":{"coding":[{"system":"http://snomed.info/sct","version":"2020-09","code":"111297002","display":"Nonparalytic stroke (disorder)","userSelected":true}]},"subject":{"reference":"Patient/9759577e-5085-40f6-8e9e-8f16f817cc72"},"recordedDate":"2025-07-14T08:00:00.000+00:00"},"request":{"method":"PUT","url":"Condition/620442a4-8f7d-4827-85d9-67fff58cedca"}},{"fullUrl":"https://madie.cms.gov/Coverage/039f3819-0a93-4639-8cd9-57af6d84f9f1","resource":{"resourceType":"Coverage","id":"039f3819-0a93-4639-8cd9-57af6d84f9f1","meta":{"profile":["http://hl7.org/fhir/us/qicore/StructureDefinition/qicore-coverage"]},"status":"active","beneficiary":{"reference":"Patient/9759577e-5085-40f6-8e9e-8f16f817cc72"},"payor":[{"reference":"Organization/c4ebf374-fd11-48db-afdf-d35c4a00eedb"}]},"request":{"method":"PUT","url":"Coverage/039f3819-0a93-4639-8cd9-57af6d84f9f1"}},{"fullUrl":"https://madie.cms.gov/Organization/c4ebf374-fd11-48db-afdf-d35c4a00eedb","resource":{"resourceType":"Organization","id":"c4ebf374-fd11-48db-afdf-d35c4a00eedb","meta":{"profile":["http://hl7.org/fhir/us/qicore/StructureDefinition/qicore-organization"]},"identifier":[{"use":"temp","system":"urn:oid:2.16.840.1.113883.4.4","value":"21-3259825"}],"active":true,"type":[{"coding":[{"system":"http://terminology.hl7.org/CodeSystem/organization-type","code":"pay","display":"Payer"}]}],"name":"Blue Cross Blue Shield of Texas","telecom":[{"system":"phone","value":"(+1) 972-766-6900"}],"address":[{"use":"billing","type":"postal","line":["P.O. Box 660044"],"city":"Dallas","state":"TX","postalCode":"75266-0044","country":"USA"}]},"request":{"method":"PUT","url":"Organization/c4ebf374-fd11-48db-afdf-d35c4a00eedb"}},{"fullUrl":"https://madie.cms.gov/MeasureReport/32dca5c0-8ab9-48eb-83fb-b9f0b188642e","resource":{"resourceType":"MeasureReport","id":"32dca5c0-8ab9-48eb-83fb-b9f0b188642e","meta":{"profile":["http://hl7.org/fhir/us/cqfmeasures/StructureDefinition/test-case-cqfm"]},"contained":[{"resourceType":"Parameters","id":"030076f6-5834-4450-94e7-59b4b6894347-parameters","parameter":[{"name":"subject","valueString":"9759577e-5085-40f6-8e9e-8f16f817cc72"}]}],"extension":[{"url":"http://hl7.org/fhir/us/cqfmeasures/StructureDefinition/cqfm-inputParameters","valueReference":{"reference":"#030076f6-5834-4450-94e7-59b4b6894347-parameters"}},{"url":"http://hl7.org/fhir/us/cqfmeasures/StructureDefinition/cqfm-testCaseDescription","valueMarkdown":"Patient receives CMO during inpatient encounter. ED ends 61 minutes before inpatient encounter start. No Observation. Testing day of operator with HospitalizationWithObservation function."}],"modifierExtension":[{"url":"http://hl7.org/fhir/us/cqfmeasures/StructureDefinition/cqfm-isTestCase","valueBoolean":true}],"status":"complete","type":"individual","measure":"https://madie.cms.gov/Measure/DischargedonAntithromboticTherapyFHIR","period":{"start":"2025-01-01","end":"2025-12-31"},"group":[{"population":[{"code":{"coding":[{"system":"http://terminology.hl7.org/CodeSystem/measure-population","code":"initial-population","display":"Initial Population"}]},"count":1},{"code":{"coding":[{"system":"http://terminology.hl7.org/CodeSystem/measure-population","code":"denominator","display":"Denominator"}]},"count":1},{"code":{"coding":[{"system":"http://terminology.hl7.org/CodeSystem/measure-population","code":"denominator-exclusion","display":"Denominator Exclusion"}]},"count":1},{"code":{"coding":[{"system":"http://terminology.hl7.org/CodeSystem/measure-population","code":"numerator","display":"Numerator"}]},"count":0},{"code":{"coding":[{"system":"http://terminology.hl7.org/CodeSystem/measure-population","code":"denominator-exception","display":"Denominator Exception"}]},"count":0}]}],"evaluatedResource":[{"reference":"Patient/9759577e-5085-40f6-8e9e-8f16f817cc72"},{"reference":"Encounter/c8eb280c-c661-4466-8359-729041672870"},{"reference":"Encounter/d8354e0c-7410-475c-ba1e-8069362b0e31"},{"reference":"ServiceRequest/00fa0bb9-b8fc-4ca5-b214-d4115691a40e"},{"reference":"Condition/620442a4-8f7d-4827-85d9-67fff58cedca"},{"reference":"Coverage/039f3819-0a93-4639-8cd9-57af6d84f9f1"},{"reference":"Organization/c4ebf374-fd11-48db-afdf-d35c4a00eedb"}]},"request":{"method":"PUT","url":"MeasureReport/32dca5c0-8ab9-48eb-83fb-b9f0b188642e"}}]}