{"resourceType":"Bundle","id":"tests-072a1e49-1d1f-48b3-a7d7-06bdc730e218-bundle","type":"transaction","entry":[{"fullUrl":"https://madie.cms.gov/Patient/072a1e49-1d1f-48b3-a7d7-06bdc730e218","resource":{"resourceType":"Patient","id":"072a1e49-1d1f-48b3-a7d7-06bdc730e218","meta":{"profile":["http://hl7.org/fhir/us/qicore/StructureDefinition/qicore-patient"]},"text":{"status":"generated","div":"<div xmlns=\"http://www.w3.org/1999/xhtml\"><div class=\"hapiHeaderText\">NoEncounter <b>IPFAIL </b></div><table class=\"hapiPropertyTable\"><tbody><tr><td>Identifier</td><td>3f8ba9c9e86d8bc227f4bde21d48d898</td></tr><tr><td>Date of birth</td><td><span>21 August 1993</span></td></tr></tbody></table></div>"},"extension":[{"url":"http://hl7.org/fhir/us/core/StructureDefinition/us-core-race","extension":[{"url":"ombCategory","valueCoding":{"system":"urn:oid:2.16.840.1.113883.6.238","code":"1002-5","display":"American Indian or Alaska Native","userSelected":true}},{"url":"text","valueString":"American Indian or Alaska Native"}]},{"url":"http://hl7.org/fhir/us/core/StructureDefinition/us-core-ethnicity","extension":[{"url":"ombCategory","valueCoding":{"system":"urn:oid:2.16.840.1.113883.6.238","code":"2135-2","display":"Hispanic or Latino","userSelected":true}},{"url":"text","valueString":"Hispanic or Latino"}]}],"identifier":[{"type":{"coding":[{"system":"http://terminology.hl7.org/CodeSystem/v2-0203","code":"MR"}]},"system":"https://bonnie-fhir.healthit.gov/","value":"6129132302c62a011f2e5ef8"}],"active":true,"name":[{"use":"usual","family":"IPFail","given":["NoEncounter"]}],"gender":"male","birthDate":"2005-08-21"},"request":{"method":"PUT","url":"Patient/072a1e49-1d1f-48b3-a7d7-06bdc730e218"}},{"fullUrl":"https://madie.cms.gov/Coverage/559cff74-8615-4823-8a0b-07a1a7f542ad","resource":{"resourceType":"Coverage","id":"559cff74-8615-4823-8a0b-07a1a7f542ad","meta":{"profile":["http://hl7.org/fhir/us/qicore/StructureDefinition/qicore-coverage"]},"status":"active","beneficiary":{"reference":"Patient/072a1e49-1d1f-48b3-a7d7-06bdc730e218"},"payor":[{"reference":"Organization/b6c79889-a239-4ead-b90a-7255caf846de"}]},"request":{"method":"PUT","url":"Coverage/559cff74-8615-4823-8a0b-07a1a7f542ad"}},{"fullUrl":"https://madie.cms.gov/Organization/b6c79889-a239-4ead-b90a-7255caf846de","resource":{"resourceType":"Organization","id":"b6c79889-a239-4ead-b90a-7255caf846de","meta":{"profile":["http://hl7.org/fhir/us/qicore/StructureDefinition/qicore-organization"]},"identifier":[{"use":"temp","system":"urn:oid:2.16.840.1.113883.4.4","value":"21-3259825"}],"active":true,"type":[{"coding":[{"system":"http://terminology.hl7.org/CodeSystem/organization-type","code":"pay","display":"Payer"}]}],"name":"Blue Cross Blue Shield of Texas","telecom":[{"system":"phone","value":"(+1) 972-766-6900"}],"address":[{"use":"billing","type":"postal","line":["P.O. Box 660044"],"city":"Dallas","state":"TX","postalCode":"75266-0044","country":"USA"}]},"request":{"method":"PUT","url":"Organization/b6c79889-a239-4ead-b90a-7255caf846de"}},{"fullUrl":"https://madie.cms.gov/MeasureReport/ca9bed05-0272-484b-ba05-e5f6c040ae89","resource":{"resourceType":"MeasureReport","id":"ca9bed05-0272-484b-ba05-e5f6c040ae89","meta":{"profile":["http://hl7.org/fhir/us/cqfmeasures/StructureDefinition/test-case-cqfm"]},"contained":[{"resourceType":"Parameters","id":"a50a93bd-bdab-49a3-8867-92190d4f4a27-parameters","parameter":[{"name":"subject","valueString":"072a1e49-1d1f-48b3-a7d7-06bdc730e218"}]}],"extension":[{"url":"http://hl7.org/fhir/us/cqfmeasures/StructureDefinition/cqfm-inputParameters","valueReference":{"reference":"#a50a93bd-bdab-49a3-8867-92190d4f4a27-parameters"}},{"url":"http://hl7.org/fhir/us/cqfmeasures/StructureDefinition/cqfm-testCaseDescription","valueMarkdown":"Patient is 19 with no Encounter Inpatient\n"}],"modifierExtension":[{"url":"http://hl7.org/fhir/us/cqfmeasures/StructureDefinition/cqfm-isTestCase","valueBoolean":true}],"status":"complete","type":"individual","measure":"https://madie.cms.gov/Measure/DischargedonAntithromboticTherapyFHIR","period":{"start":"2025-01-01","end":"2025-12-31"},"group":[{"population":[{"code":{"coding":[{"system":"http://terminology.hl7.org/CodeSystem/measure-population","code":"initial-population","display":"Initial Population"}]},"count":0},{"code":{"coding":[{"system":"http://terminology.hl7.org/CodeSystem/measure-population","code":"denominator","display":"Denominator"}]},"count":0},{"code":{"coding":[{"system":"http://terminology.hl7.org/CodeSystem/measure-population","code":"denominator-exclusion","display":"Denominator Exclusion"}]},"count":0},{"code":{"coding":[{"system":"http://terminology.hl7.org/CodeSystem/measure-population","code":"numerator","display":"Numerator"}]},"count":0},{"code":{"coding":[{"system":"http://terminology.hl7.org/CodeSystem/measure-population","code":"denominator-exception","display":"Denominator Exception"}]},"count":0}]}],"evaluatedResource":[{"reference":"Patient/072a1e49-1d1f-48b3-a7d7-06bdc730e218"},{"reference":"Coverage/559cff74-8615-4823-8a0b-07a1a7f542ad"},{"reference":"Organization/b6c79889-a239-4ead-b90a-7255caf846de"}]},"request":{"method":"PUT","url":"MeasureReport/ca9bed05-0272-484b-ba05-e5f6c040ae89"}}]}