{"resourceType":"Bundle","id":"tests-f447f9d3-2e3b-4c97-938f-a84cc34abd78-bundle","type":"transaction","entry":[{"fullUrl":"https://madie.cms.gov/Patient/f447f9d3-2e3b-4c97-938f-a84cc34abd78","resource":{"resourceType":"Patient","id":"f447f9d3-2e3b-4c97-938f-a84cc34abd78","meta":{"profile":["http://hl7.org/fhir/us/qicore/StructureDefinition/qicore-patient"]},"text":{"status":"generated","div":"<div xmlns=\"http://www.w3.org/1999/xhtml\"><div class=\"hapiHeaderText\"> CMOdurDiffEDTestOccur <b>DENEXPASS </b></div><table class=\"hapiPropertyTable\"><tbody><tr><td>Identifier</td><td>8ca2b35206ea67637d1637609c7d085ff3b14c20bc19eae5b26464da239a5345</td></tr><tr><td>Date of birth</td><td><span>21 August 1994</span></td></tr></tbody></table></div>"},"extension":[{"url":"http://hl7.org/fhir/us/core/StructureDefinition/us-core-race","extension":[{"url":"ombCategory","valueCoding":{"system":"urn:oid:2.16.840.1.113883.6.238","code":"1002-5","display":"American Indian or Alaska Native","userSelected":true}},{"url":"text","valueString":"American Indian or Alaska Native"}]},{"url":"http://hl7.org/fhir/us/core/StructureDefinition/us-core-ethnicity","extension":[{"url":"ombCategory","valueCoding":{"system":"urn:oid:2.16.840.1.113883.6.238","code":"2135-2","display":"Hispanic or Latino","userSelected":true}},{"url":"text","valueString":"Hispanic or Latino"}]}],"identifier":[{"type":{"coding":[{"system":"http://terminology.hl7.org/CodeSystem/v2-0203","code":"MR"}]},"system":"https://bonnie-fhir.healthit.gov/","value":"6129135502c62a011f2e752c"}],"active":true,"name":[{"use":"usual","family":"DENEXFail","given":["CMOdurDiffEDTestOccur"]}],"gender":"male","birthDate":"1994-08-21"},"request":{"method":"PUT","url":"Patient/f447f9d3-2e3b-4c97-938f-a84cc34abd78"}},{"fullUrl":"https://madie.cms.gov/Encounter/3235d1ad-9b61-4d2e-a5c7-63425619f956","resource":{"resourceType":"Encounter","id":"3235d1ad-9b61-4d2e-a5c7-63425619f956","meta":{"profile":["http://hl7.org/fhir/us/qicore/StructureDefinition/qicore-encounter"]},"status":"finished","class":{"system":"http://terminology.hl7.org/CodeSystem/v3-ActCode","code":"EMER","display":"emergency","userSelected":true},"type":[{"coding":[{"system":"http://snomed.info/sct","code":"4525004"}]}],"subject":{"reference":"Patient/f447f9d3-2e3b-4c97-938f-a84cc34abd78"},"period":{"start":"2025-10-10T12:31:00.000+00:00","end":"2025-10-10T12:46:00.000+00:00"},"length":{"value":0,"unit":"days"}},"request":{"method":"PUT","url":"Encounter/3235d1ad-9b61-4d2e-a5c7-63425619f956"}},{"fullUrl":"https://madie.cms.gov/Encounter/74b98f07-3630-4dc8-ab82-309834fa5626","resource":{"resourceType":"Encounter","id":"74b98f07-3630-4dc8-ab82-309834fa5626","meta":{"profile":["http://hl7.org/fhir/us/qicore/StructureDefinition/qicore-encounter"]},"status":"finished","class":{"system":"http://terminology.hl7.org/CodeSystem/v3-ActCode","code":"EMER","display":"emergency","userSelected":true},"type":[{"coding":[{"system":"http://snomed.info/sct","code":"4525004"}]}],"subject":{"reference":"Patient/f447f9d3-2e3b-4c97-938f-a84cc34abd78"},"period":{"start":"2025-10-11T10:30:00.000+00:00","end":"2025-10-11T11:30:00.000+00:00"},"length":{"value":0,"unit":"days"}},"request":{"method":"PUT","url":"Encounter/74b98f07-3630-4dc8-ab82-309834fa5626"}},{"fullUrl":"https://madie.cms.gov/Encounter/d940d52e-8f3f-442d-857f-c197782c9e06","resource":{"resourceType":"Encounter","id":"d940d52e-8f3f-442d-857f-c197782c9e06","meta":{"profile":["http://hl7.org/fhir/us/qicore/StructureDefinition/qicore-encounter"]},"status":"finished","class":{"system":"http://terminology.hl7.org/CodeSystem/v3-ActCode","code":"IMP","display":"inpatient encounter","userSelected":true},"type":[{"coding":[{"system":"http://snomed.info/sct","code":"32485007"}]}],"subject":{"reference":"Patient/f447f9d3-2e3b-4c97-938f-a84cc34abd78"},"period":{"start":"2025-10-11T12:30:00.000+00:00","end":"2025-10-13T11:30:00.000+00:00"},"length":{"value":2,"unit":"days"},"diagnosis":[{"condition":{"reference":"Condition/794156c4-9e88-4d50-a712-d9bc75142ddb"},"use":{"coding":[{"system":"http://terminology.hl7.org/CodeSystem/diagnosis-role","code":"billing","display":"Billing"}]},"rank":1}]},"request":{"method":"PUT","url":"Encounter/d940d52e-8f3f-442d-857f-c197782c9e06"}},{"fullUrl":"https://madie.cms.gov/ServiceRequest/0aff41d5-40c7-4f63-ab80-5743c1702893","resource":{"resourceType":"ServiceRequest","id":"0aff41d5-40c7-4f63-ab80-5743c1702893","meta":{"profile":["http://hl7.org/fhir/us/qicore/StructureDefinition/qicore-servicerequest"]},"status":"active","intent":"order","code":{"coding":[{"system":"http://snomed.info/sct","code":"133918004"}]},"subject":{"reference":"Patient/f447f9d3-2e3b-4c97-938f-a84cc34abd78"},"authoredOn":"2025-10-11T12:31:00.000+00:00"},"request":{"method":"PUT","url":"ServiceRequest/0aff41d5-40c7-4f63-ab80-5743c1702893"}},{"fullUrl":"https://madie.cms.gov/Condition/794156c4-9e88-4d50-a712-d9bc75142ddb","resource":{"resourceType":"Condition","id":"794156c4-9e88-4d50-a712-d9bc75142ddb","meta":{"profile":["http://hl7.org/fhir/us/qicore/StructureDefinition/qicore-condition"]},"clinicalStatus":{"coding":[{"system":"http://terminology.hl7.org/CodeSystem/condition-clinical","code":"active"}]},"verificationStatus":{"coding":[{"system":"http://terminology.hl7.org/CodeSystem/condition-ver-status","code":"confirmed"}]},"category":[{"coding":[{"system":"http://terminology.hl7.org/CodeSystem/condition-category","code":"encounter-diagnosis","display":"Encounter Diagnosis"}]}],"code":{"coding":[{"system":"http://snomed.info/sct","version":"2020-09","code":"111297002","display":"Nonparalytic stroke (disorder)","userSelected":true}]},"subject":{"reference":"Patient/f447f9d3-2e3b-4c97-938f-a84cc34abd78"},"recordedDate":"2025-07-14T08:00:00.000+00:00"},"request":{"method":"PUT","url":"Condition/794156c4-9e88-4d50-a712-d9bc75142ddb"}},{"fullUrl":"https://madie.cms.gov/Coverage/42b1031f-c7e3-4022-9612-f5a301df9b15","resource":{"resourceType":"Coverage","id":"42b1031f-c7e3-4022-9612-f5a301df9b15","meta":{"profile":["http://hl7.org/fhir/us/qicore/StructureDefinition/qicore-coverage"]},"status":"active","beneficiary":{"reference":"Patient/f447f9d3-2e3b-4c97-938f-a84cc34abd78"},"payor":[{"reference":"Organization/d1df8713-9dfd-4ae3-8626-b3b4bd8a1177"}]},"request":{"method":"PUT","url":"Coverage/42b1031f-c7e3-4022-9612-f5a301df9b15"}},{"fullUrl":"https://madie.cms.gov/Organization/d1df8713-9dfd-4ae3-8626-b3b4bd8a1177","resource":{"resourceType":"Organization","id":"d1df8713-9dfd-4ae3-8626-b3b4bd8a1177","meta":{"profile":["http://hl7.org/fhir/us/qicore/StructureDefinition/qicore-organization"]},"identifier":[{"use":"temp","system":"urn:oid:2.16.840.1.113883.4.4","value":"21-3259825"}],"active":true,"type":[{"coding":[{"system":"http://terminology.hl7.org/CodeSystem/organization-type","code":"pay","display":"Payer"}]}],"name":"Blue Cross Blue Shield of Texas","telecom":[{"system":"phone","value":"(+1) 972-766-6900"}],"address":[{"use":"billing","type":"postal","line":["P.O. Box 660044"],"city":"Dallas","state":"TX","postalCode":"75266-0044","country":"USA"}]},"request":{"method":"PUT","url":"Organization/d1df8713-9dfd-4ae3-8626-b3b4bd8a1177"}},{"fullUrl":"https://madie.cms.gov/MeasureReport/880a6785-e136-4c50-b798-941f7c3369be","resource":{"resourceType":"MeasureReport","id":"880a6785-e136-4c50-b798-941f7c3369be","meta":{"profile":["http://hl7.org/fhir/us/cqfmeasures/StructureDefinition/test-case-cqfm"]},"contained":[{"resourceType":"Parameters","id":"cc7f39c1-0ae2-46b9-8c27-ab4f3b3e77b0-parameters","parameter":[{"name":"subject","valueString":"f447f9d3-2e3b-4c97-938f-a84cc34abd78"}]}],"extension":[{"url":"http://hl7.org/fhir/us/cqfmeasures/StructureDefinition/cqfm-inputParameters","valueReference":{"reference":"#cc7f39c1-0ae2-46b9-8c27-ab4f3b3e77b0-parameters"}},{"url":"http://hl7.org/fhir/us/cqfmeasures/StructureDefinition/cqfm-testCaseDescription","valueMarkdown":"Patient receives CMO during inpatient encounter. No ED.  Observation ends 1 min before IP start. Testing day of operator with HospitalizationWithObservation function."}],"modifierExtension":[{"url":"http://hl7.org/fhir/us/cqfmeasures/StructureDefinition/cqfm-isTestCase","valueBoolean":true}],"status":"complete","type":"individual","measure":"https://madie.cms.gov/Measure/DischargedonAntithromboticTherapyFHIR","period":{"start":"2025-01-01","end":"2025-12-31"},"group":[{"population":[{"code":{"coding":[{"system":"http://terminology.hl7.org/CodeSystem/measure-population","code":"initial-population","display":"Initial Population"}]},"count":1},{"code":{"coding":[{"system":"http://terminology.hl7.org/CodeSystem/measure-population","code":"denominator","display":"Denominator"}]},"count":1},{"code":{"coding":[{"system":"http://terminology.hl7.org/CodeSystem/measure-population","code":"denominator-exclusion","display":"Denominator Exclusion"}]},"count":1},{"code":{"coding":[{"system":"http://terminology.hl7.org/CodeSystem/measure-population","code":"numerator","display":"Numerator"}]},"count":0},{"code":{"coding":[{"system":"http://terminology.hl7.org/CodeSystem/measure-population","code":"denominator-exception","display":"Denominator Exception"}]},"count":0}]}],"evaluatedResource":[{"reference":"Patient/f447f9d3-2e3b-4c97-938f-a84cc34abd78"},{"reference":"Encounter/3235d1ad-9b61-4d2e-a5c7-63425619f956"},{"reference":"Encounter/74b98f07-3630-4dc8-ab82-309834fa5626"},{"reference":"Encounter/d940d52e-8f3f-442d-857f-c197782c9e06"},{"reference":"ServiceRequest/0aff41d5-40c7-4f63-ab80-5743c1702893"},{"reference":"Condition/794156c4-9e88-4d50-a712-d9bc75142ddb"},{"reference":"Coverage/42b1031f-c7e3-4022-9612-f5a301df9b15"},{"reference":"Organization/d1df8713-9dfd-4ae3-8626-b3b4bd8a1177"}]},"request":{"method":"PUT","url":"MeasureReport/880a6785-e136-4c50-b798-941f7c3369be"}}]}