{"resourceType":"Bundle","id":"tests-7530baef-a41e-43ce-8580-37b2e7116238-bundle","type":"transaction","entry":[{"fullUrl":"https://madie.cms.gov/Patient/7530baef-a41e-43ce-8580-37b2e7116238","resource":{"resourceType":"Patient","id":"7530baef-a41e-43ce-8580-37b2e7116238","meta":{"profile":["http://hl7.org/fhir/us/qicore/StructureDefinition/qicore-patient"]},"text":{"status":"generated","div":"<div xmlns=\"http://www.w3.org/1999/xhtml\"><div class=\"hapiHeaderText\">AntithromboticTMeqIPDischargeTM <b>NUMERPASS </b></div><table class=\"hapiPropertyTable\"><tbody><tr><td>Identifier</td><td>7ab6e63f108901daa30ab76a624a6e8b</td></tr><tr><td>Date of birth</td><td><span>31 May 1990</span></td></tr></tbody></table></div>"},"extension":[{"url":"http://hl7.org/fhir/us/core/StructureDefinition/us-core-race","extension":[{"url":"ombCategory","valueCoding":{"system":"urn:oid:2.16.840.1.113883.6.238","code":"1002-5","display":"American Indian or Alaska Native","userSelected":true}},{"url":"text","valueString":"American Indian or Alaska Native"}]},{"url":"http://hl7.org/fhir/us/core/StructureDefinition/us-core-ethnicity","extension":[{"url":"ombCategory","valueCoding":{"system":"urn:oid:2.16.840.1.113883.6.238","code":"2135-2","display":"Hispanic or Latino","userSelected":true}},{"url":"text","valueString":"Hispanic or Latino"}]}],"identifier":[{"type":{"coding":[{"system":"http://terminology.hl7.org/CodeSystem/v2-0203","code":"MR"}]},"system":"https://bonnie-fhir.healthit.gov/","value":"6129134002c62a011f2e6b12"}],"active":true,"name":[{"use":"usual","family":"NUMERPass","given":["AntithromboticTMeqIPAdmitTM"]}],"gender":"male","birthDate":"1999-05-31"},"request":{"method":"PUT","url":"Patient/7530baef-a41e-43ce-8580-37b2e7116238"}},{"fullUrl":"https://madie.cms.gov/Encounter/7994cd68-a76f-4702-a6d3-17b8a3245ed5","resource":{"resourceType":"Encounter","id":"7994cd68-a76f-4702-a6d3-17b8a3245ed5","meta":{"profile":["http://hl7.org/fhir/us/qicore/StructureDefinition/qicore-encounter"]},"status":"finished","class":{"system":"http://terminology.hl7.org/CodeSystem/v3-ActCode","code":"IMP","display":"inpatient encounter","userSelected":true},"type":[{"coding":[{"system":"http://snomed.info/sct","code":"32485007"}]}],"subject":{"reference":"Patient/7530baef-a41e-43ce-8580-37b2e7116238"},"period":{"start":"2025-06-15T09:30:00.000+00:00","end":"2025-10-12T10:30:00.000+00:00"},"length":{"value":119,"unit":"days"},"diagnosis":[{"condition":{"reference":"Condition/b154d621-d872-4f15-ae6e-6b4b2cddd4a5"},"use":{"coding":[{"system":"http://terminology.hl7.org/CodeSystem/diagnosis-role","code":"billing","display":"Billing"}]},"rank":1}]},"request":{"method":"PUT","url":"Encounter/7994cd68-a76f-4702-a6d3-17b8a3245ed5"}},{"fullUrl":"https://madie.cms.gov/MedicationRequest/96bd6308-f567-4cf2-8cf1-498ac54f1464","resource":{"resourceType":"MedicationRequest","id":"96bd6308-f567-4cf2-8cf1-498ac54f1464","meta":{"profile":["http://hl7.org/fhir/us/qicore/StructureDefinition/qicore-medicationrequest"]},"status":"active","intent":"order","category":[{"coding":[{"system":"http://terminology.hl7.org/CodeSystem/medicationrequest-category","code":"discharge","display":"Discharge","userSelected":true}]}],"medicationCodeableConcept":{"coding":[{"system":"http://www.nlm.nih.gov/research/umls/rxnorm","code":"1037045"}]},"subject":{"reference":"Patient/7530baef-a41e-43ce-8580-37b2e7116238"},"authoredOn":"2025-06-15T09:30:00.000+00:00","requester":{"reference":"Practitioner/example"}},"request":{"method":"PUT","url":"MedicationRequest/96bd6308-f567-4cf2-8cf1-498ac54f1464"}},{"fullUrl":"https://madie.cms.gov/Condition/b154d621-d872-4f15-ae6e-6b4b2cddd4a5","resource":{"resourceType":"Condition","id":"b154d621-d872-4f15-ae6e-6b4b2cddd4a5","meta":{"profile":["http://hl7.org/fhir/us/qicore/StructureDefinition/qicore-condition"]},"clinicalStatus":{"coding":[{"system":"http://terminology.hl7.org/CodeSystem/condition-clinical","code":"active"}]},"verificationStatus":{"coding":[{"system":"http://terminology.hl7.org/CodeSystem/condition-ver-status","code":"confirmed"}]},"category":[{"coding":[{"system":"http://terminology.hl7.org/CodeSystem/condition-category","code":"encounter-diagnosis","display":"Encounter Diagnosis"}]}],"code":{"coding":[{"system":"http://snomed.info/sct","version":"2020-09","code":"111297002","display":"Nonparalytic stroke (disorder)","userSelected":true}]},"subject":{"reference":"Patient/7530baef-a41e-43ce-8580-37b2e7116238"},"recordedDate":"2025-07-15T08:00:00.000+00:00"},"request":{"method":"PUT","url":"Condition/b154d621-d872-4f15-ae6e-6b4b2cddd4a5"}},{"fullUrl":"https://madie.cms.gov/Coverage/25b14d7d-fc41-4572-af45-4c66357b66cf","resource":{"resourceType":"Coverage","id":"25b14d7d-fc41-4572-af45-4c66357b66cf","meta":{"profile":["http://hl7.org/fhir/us/qicore/StructureDefinition/qicore-coverage"]},"status":"active","beneficiary":{"reference":"Patient/7530baef-a41e-43ce-8580-37b2e7116238"},"payor":[{"reference":"Organization/b13ec17e-7902-43f2-baf1-6333c0e6d1f6"}]},"request":{"method":"PUT","url":"Coverage/25b14d7d-fc41-4572-af45-4c66357b66cf"}},{"fullUrl":"https://madie.cms.gov/Organization/b13ec17e-7902-43f2-baf1-6333c0e6d1f6","resource":{"resourceType":"Organization","id":"b13ec17e-7902-43f2-baf1-6333c0e6d1f6","meta":{"profile":["http://hl7.org/fhir/us/qicore/StructureDefinition/qicore-organization"]},"identifier":[{"use":"temp","system":"urn:oid:2.16.840.1.113883.4.4","value":"21-3259825"}],"active":true,"type":[{"coding":[{"system":"http://terminology.hl7.org/CodeSystem/organization-type","code":"pay","display":"Payer"}]}],"name":"Blue Cross Blue Shield of Texas","telecom":[{"system":"phone","value":"(+1) 972-766-6900"}],"address":[{"use":"billing","type":"postal","line":["P.O. Box 660044"],"city":"Dallas","state":"TX","postalCode":"75266-0044","country":"USA"}]},"request":{"method":"PUT","url":"Organization/b13ec17e-7902-43f2-baf1-6333c0e6d1f6"}},{"fullUrl":"https://madie.cms.gov/MeasureReport/ab627fec-dae7-4b5f-93f3-581ba7a78ec3","resource":{"resourceType":"MeasureReport","id":"ab627fec-dae7-4b5f-93f3-581ba7a78ec3","meta":{"profile":["http://hl7.org/fhir/us/cqfmeasures/StructureDefinition/test-case-cqfm"]},"contained":[{"resourceType":"Parameters","id":"7d9e99bf-4b54-47c3-bc27-210c3d0c5624-parameters","parameter":[{"name":"subject","valueString":"7530baef-a41e-43ce-8580-37b2e7116238"}]}],"extension":[{"url":"http://hl7.org/fhir/us/cqfmeasures/StructureDefinition/cqfm-inputParameters","valueReference":{"reference":"#7d9e99bf-4b54-47c3-bc27-210c3d0c5624-parameters"}},{"url":"http://hl7.org/fhir/us/cqfmeasures/StructureDefinition/cqfm-testCaseDescription","valueMarkdown":"Antithrombotic Time equals Admit Time"}],"modifierExtension":[{"url":"http://hl7.org/fhir/us/cqfmeasures/StructureDefinition/cqfm-isTestCase","valueBoolean":true}],"status":"complete","type":"individual","measure":"https://madie.cms.gov/Measure/DischargedonAntithromboticTherapyFHIR","period":{"start":"2025-01-01","end":"2025-12-31"},"group":[{"population":[{"code":{"coding":[{"system":"http://terminology.hl7.org/CodeSystem/measure-population","code":"initial-population","display":"Initial Population"}]},"count":1},{"code":{"coding":[{"system":"http://terminology.hl7.org/CodeSystem/measure-population","code":"denominator","display":"Denominator"}]},"count":1},{"code":{"coding":[{"system":"http://terminology.hl7.org/CodeSystem/measure-population","code":"denominator-exclusion","display":"Denominator Exclusion"}]},"count":0},{"code":{"coding":[{"system":"http://terminology.hl7.org/CodeSystem/measure-population","code":"numerator","display":"Numerator"}]},"count":1},{"code":{"coding":[{"system":"http://terminology.hl7.org/CodeSystem/measure-population","code":"denominator-exception","display":"Denominator Exception"}]},"count":0}]}],"evaluatedResource":[{"reference":"Patient/7530baef-a41e-43ce-8580-37b2e7116238"},{"reference":"Encounter/7994cd68-a76f-4702-a6d3-17b8a3245ed5"},{"reference":"MedicationRequest/96bd6308-f567-4cf2-8cf1-498ac54f1464"},{"reference":"Condition/b154d621-d872-4f15-ae6e-6b4b2cddd4a5"},{"reference":"Coverage/25b14d7d-fc41-4572-af45-4c66357b66cf"},{"reference":"Organization/b13ec17e-7902-43f2-baf1-6333c0e6d1f6"}]},"request":{"method":"PUT","url":"MeasureReport/ab627fec-dae7-4b5f-93f3-581ba7a78ec3"}}]}