{
  "resourceType": "Bundle",
  "id": "DENEXPass-HospiceObsValueIsYes",
  "type": "transaction",
  "entry": [
    {
      "fullUrl": "https://madie.cms.gov/Patient/09adcd81-b4bc-40ff-a1de-53d6674d3495",
      "resource": {
        "resourceType": "Patient",
        "id": "09adcd81-b4bc-40ff-a1de-53d6674d3495",
        "meta": {
          "profile": [
            "http://hl7.org/fhir/us/qicore/StructureDefinition/qicore-patient"
          ]
        },
        "extension": [
          {
            "url": "http://hl7.org/fhir/us/core/StructureDefinition/us-core-race",
            "extension": [
              {
                "url": "ombCategory",
                "valueCoding": {
                  "system": "urn:oid:2.16.840.1.113883.6.238",
                  "code": "2028-9",
                  "display": "Asian"
                }
              },
              {
                "url": "text",
                "valueString": "Asian"
              }
            ]
          },
          {
            "url": "http://hl7.org/fhir/us/core/StructureDefinition/us-core-ethnicity",
            "extension": [
              {
                "url": "ombCategory",
                "valueCoding": {
                  "system": "urn:oid:2.16.840.1.113883.6.238",
                  "code": "2135-2",
                  "display": "Hispanic or Latino"
                }
              },
              {
                "url": "text",
                "valueString": "Hispanic or Latino"
              }
            ]
          }
        ],
        "identifier": [
          {
            "system": "http://hospital.smarthealthit.org",
            "value": "999999995"
          }
        ],
        "name": [
          {
            "family": "Bertha",
            "given": [
              "Betty"
            ]
          }
        ],
        "gender": "female",
        "birthDate": "2005-01-01"
      },
      "request": {
        "method": "PUT",
        "url": "Patient/09adcd81-b4bc-40ff-a1de-53d6674d3495"
      }
    },
    {
      "fullUrl": "https://madie.cms.gov/Encounter/a6252cdd-8472-4b18-bc44-e0ff2831f368",
      "resource": {
        "resourceType": "Encounter",
        "id": "a6252cdd-8472-4b18-bc44-e0ff2831f368",
        "meta": {
          "profile": [
            "http://hl7.org/fhir/us/qicore/StructureDefinition/qicore-encounter"
          ]
        },
        "status": "finished",
        "class": {
          "system": "http://terminology.hl7.org/CodeSystem/v3-ActCode",
          "code": "AMB",
          "display": "ambulatory"
        },
        "type": [
          {
            "coding": [
              {
                "system": "http://www.ada.org/cdt",
                "code": "D0120",
                "display": "periodic oral evaluation - established patient"
              }
            ]
          }
        ],
        "subject": {
          "reference": "Patient/09adcd81-b4bc-40ff-a1de-53d6674d3495"
        },
        "period": {
          "start": "2025-01-01T00:00:00.000Z",
          "end": "2025-01-01T01:15:00.000Z"
        }
      },
      "request": {
        "method": "PUT",
        "url": "Encounter/a6252cdd-8472-4b18-bc44-e0ff2831f368"
      }
    },
    {
      "fullUrl": "https://madie.cms.gov/Observation/bf2012f8-1a24-4554-8ed0-6677634c4263",
      "resource": {
        "resourceType": "Observation",
        "id": "bf2012f8-1a24-4554-8ed0-6677634c4263",
        "meta": {
          "profile": [
            "http://hl7.org/fhir/us/qicore/StructureDefinition/qicore-observation"
          ]
        },
        "status": "final",
        "category": [
          {
            "coding": [
              {
                "system": "http://terminology.hl7.org/CodeSystem/observation-category",
                "code": "survey"
              }
            ]
          }
        ],
        "code": {
          "coding": [
            {
              "system": "http://loinc.org",
              "code": "45755-6",
              "display": "Hospice care [Minimum Data Set]"
            }
          ]
        },
        "subject": {
          "reference": "Patient/09adcd81-b4bc-40ff-a1de-53d6674d3495"
        },
        "effectivePeriod": {
          "start": "2024-12-31T00:00:00.000Z",
          "end": "2025-01-01T00:00:00.000Z"
        },
        "valueCodeableConcept": {
          "coding": [
            {
              "system": "http://snomed.info/sct",
              "code": "373066001",
              "display": "Yes (qualifier value)"
            }
          ]
        }
      },
      "request": {
        "method": "PUT",
        "url": "Observation/bf2012f8-1a24-4554-8ed0-6677634c4263"
      }
    },
    {
      "fullUrl": "https://madie.cms.gov/MeasureReport/eeba8b71-762a-443e-8a28-747868496e06",
      "resource": {
        "resourceType": "MeasureReport",
        "id": "eeba8b71-762a-443e-8a28-747868496e06",
        "meta": {
          "profile": [
            "http://hl7.org/fhir/us/cqfmeasures/StructureDefinition/test-case-cqfm"
          ]
        },
        "contained": [
          {
            "resourceType": "Parameters",
            "id": "72788cdf-b85d-4fd1-8880-5b95c8edf63b-parameters",
            "parameter": [
              {
                "name": "subject",
                "valueString": "09adcd81-b4bc-40ff-a1de-53d6674d3495"
              }
            ]
          }
        ],
        "extension": [
          {
            "url": "http://hl7.org/fhir/us/cqfmeasures/StructureDefinition/cqfm-inputParameters",
            "valueReference": {
              "reference": "#72788cdf-b85d-4fd1-8880-5b95c8edf63b-parameters"
            }
          },
          {
            "url": "http://hl7.org/fhir/us/cqfmeasures/StructureDefinition/cqfm-testCaseDescription",
            "valueMarkdown": "Hospice Observation - For meeting 100% coverage"
          }
        ],
        "modifierExtension": [
          {
            "url": "http://hl7.org/fhir/us/cqfmeasures/StructureDefinition/cqfm-isTestCase",
            "valueBoolean": true
          }
        ],
        "status": "complete",
        "type": "individual",
        "measure": "https://madie.cms.gov/Measure/PrimaryCariesPreventionasOfferedbyDentistsFHIR",
        "period": {
          "start": "2025-01-01",
          "end": "2025-12-31"
        },
        "group": [
          {
            "population": [
              {
                "code": {
                  "coding": [
                    {
                      "system": "http://terminology.hl7.org/CodeSystem/measure-population",
                      "code": "initial-population",
                      "display": "Initial Population"
                    }
                  ]
                },
                "count": 1
              },
              {
                "code": {
                  "coding": [
                    {
                      "system": "http://terminology.hl7.org/CodeSystem/measure-population",
                      "code": "denominator",
                      "display": "Denominator"
                    }
                  ]
                },
                "count": 1
              },
              {
                "code": {
                  "coding": [
                    {
                      "system": "http://terminology.hl7.org/CodeSystem/measure-population",
                      "code": "denominator-exclusion",
                      "display": "Denominator Exclusion"
                    }
                  ]
                },
                "count": 1
              },
              {
                "code": {
                  "coding": [
                    {
                      "system": "http://terminology.hl7.org/CodeSystem/measure-population",
                      "code": "numerator",
                      "display": "Numerator"
                    }
                  ]
                },
                "count": 0
              }
            ]
          }
        ],
        "evaluatedResource": [
          {
            "reference": "Patient/09adcd81-b4bc-40ff-a1de-53d6674d3495"
          },
          {
            "reference": "Encounter/a6252cdd-8472-4b18-bc44-e0ff2831f368"
          },
          {
            "reference": "Observation/bf2012f8-1a24-4554-8ed0-6677634c4263"
          }
        ]
      },
      "request": {
        "method": "PUT",
        "url": "MeasureReport/eeba8b71-762a-443e-8a28-747868496e06"
      }
    }
  ]
}