{
  "resourceType": "Bundle",
  "id": "63594c7a6aee9629c82981df",
  "type": "transaction",
  "entry": [
    {
      "fullUrl": "https://madie.cms.gov/Patient/83346c9d-6c4e-4b4d-9f1a-0d476a3772d0",
      "resource": {
        "resourceType": "Patient",
        "id": "83346c9d-6c4e-4b4d-9f1a-0d476a3772d0",
        "meta": {
          "profile": [
            "http://hl7.org/fhir/us/qicore/StructureDefinition/qicore-patient"
          ]
        },
        "text": {
          "status": "generated",
          "div": "<div xmlns=\"http://www.w3.org/1999/xhtml\"><div class=\"hapiHeaderText\">AssPrfDelRelvDtEQIPEnd <b>RISK=ASTHMA </b></div><table class=\"hapiPropertyTable\"><tbody><tr><td>Date of birth</td><td><span>01 February 2004</span></td></tr></tbody></table></div>"
        },
        "extension": [
          {
            "url": "http://hl7.org/fhir/us/core/StructureDefinition/us-core-race",
            "extension": [
              {
                "url": "ombCategory",
                "valueCoding": {
                  "system": "urn:oid:2.16.840.1.113883.6.238",
                  "code": "1002-5",
                  "display": "American Indian or Alaska Native",
                  "userSelected": true
                }
              },
              {
                "url": "text",
                "valueString": "American Indian or Alaska Native"
              }
            ]
          },
          {
            "url": "http://hl7.org/fhir/us/core/StructureDefinition/us-core-ethnicity",
            "extension": [
              {
                "url": "ombCategory",
                "valueCoding": {
                  "system": "urn:oid:2.16.840.1.113883.6.238",
                  "code": "2135-2",
                  "display": "Hispanic or Latino",
                  "userSelected": true
                }
              },
              {
                "url": "text",
                "valueString": "Hispanic or Latino"
              }
            ]
          }
        ],
        "identifier": [
          {
            "type": {
              "coding": [
                {
                  "system": "http://terminology.hl7.org/CodeSystem/v2-0203",
                  "code": "MR"
                }
              ]
            },
            "system": "https://bonnie-fhir.healthit.gov/",
            "value": "63594c7a6aee9629c82981df"
          }
        ],
        "active": true,
        "name": [
          {
            "use": "usual",
            "family": "RiskFail",
            "given": [
              "Risk_Anemia_RiskVariablePOAisNo"
            ]
          }
        ],
        "gender": "female",
        "birthDate": "2004-02-01"
      },
      "request": {
        "method": "PUT",
        "url": "Patient/83346c9d-6c4e-4b4d-9f1a-0d476a3772d0"
      }
    },
    {
      "fullUrl": "https://madie.cms.gov/Observation/f033373e-68ee-4af1-974a-dc882e8fa216",
      "resource": {
        "resourceType": "Observation",
        "id": "f033373e-68ee-4af1-974a-dc882e8fa216",
        "meta": {
          "profile": [
            "http://hl7.org/fhir/us/qicore/StructureDefinition/qicore-observation"
          ]
        },
        "status": "final",
        "category": [
          {
            "coding": [
              {
                "system": "http://terminology.hl7.org/CodeSystem/observation-category",
                "code": "exam",
                "display": "exam",
                "userSelected": true
              }
            ]
          }
        ],
        "code": {
          "coding": [
            {
              "system": "http://loinc.org",
              "code": "93857-1"
            }
          ]
        },
        "subject": {
          "reference": "Patient/83346c9d-6c4e-4b4d-9f1a-0d476a3772d0"
        },
        "effectiveDateTime": "2024-02-01T08:00:00.000+00:00",
        "valueDateTime": "2024-02-01T08:00:00+00:00"
      },
      "request": {
        "method": "PUT",
        "url": "Observation/f033373e-68ee-4af1-974a-dc882e8fa216"
      }
    },
    {
      "fullUrl": "https://madie.cms.gov/Observation/b5656f9a-1e39-4c92-af98-6b838049487c",
      "resource": {
        "resourceType": "Observation",
        "id": "b5656f9a-1e39-4c92-af98-6b838049487c",
        "meta": {
          "profile": [
            "http://hl7.org/fhir/us/qicore/StructureDefinition/qicore-observation"
          ]
        },
        "status": "final",
        "category": [
          {
            "coding": [
              {
                "system": "http://terminology.hl7.org/CodeSystem/observation-category",
                "code": "exam",
                "display": "exam",
                "userSelected": true
              }
            ]
          }
        ],
        "code": {
          "coding": [
            {
              "system": "http://loinc.org",
              "code": "11778-8"
            }
          ]
        },
        "subject": {
          "reference": "Patient/83346c9d-6c4e-4b4d-9f1a-0d476a3772d0"
        },
        "effectiveDateTime": "2024-02-01T08:00:00.000+00:00",
        "valueDateTime": "2024-02-01T00:00:00.000+00:00"
      },
      "request": {
        "method": "PUT",
        "url": "Observation/b5656f9a-1e39-4c92-af98-6b838049487c"
      }
    },
    {
      "fullUrl": "https://madie.cms.gov/Encounter/495105af-7a40-4eb9-9e21-27350888b63c",
      "resource": {
        "resourceType": "Encounter",
        "id": "495105af-7a40-4eb9-9e21-27350888b63c",
        "meta": {
          "profile": [
            "http://hl7.org/fhir/us/qicore/StructureDefinition/qicore-encounter"
          ]
        },
        "status": "finished",
        "class": {
          "system": "http://terminology.hl7.org/CodeSystem/v3-ActCode",
          "code": "IMP",
          "display": "inpatient encounter"
        },
        "type": [
          {
            "coding": [
              {
                "system": "http://snomed.info/sct",
                "code": "183452005"
              }
            ]
          }
        ],
        "subject": {
          "reference": "Patient/83346c9d-6c4e-4b4d-9f1a-0d476a3772d0"
        },
        "period": {
          "start": "2024-02-01T08:00:00.000Z",
          "end": "2024-02-05T08:15:00.000Z"
        },
        "diagnosis": [
          {
            "extension": [
              {
                "url": "http://hl7.org/fhir/us/qicore/StructureDefinition/qicore-encounter-diagnosisPresentOnAdmission",
                "valueCodeableConcept": {
                  "coding": [
                    {
                      "system": "https://www.cms.gov/Medicare/Medicare-Fee-for-Service-Payment/HospitalAcqCond/Coding",
                      "code": "Y"
                    }
                  ]
                }
              }
            ],
            "condition": {
              "reference": "Condition/anemia81e0"
            }
          },
          {
            "extension": [
              {
                "url": "http://hl7.org/fhir/us/qicore/StructureDefinition/qicore-encounter-diagnosisPresentOnAdmission",
                "valueCodeableConcept": {
                  "coding": [
                    {
                      "system": "https://www.cms.gov/Medicare/Medicare-Fee-for-Service-Payment/HospitalAcqCond/Coding",
                      "code": "N"
                    }
                  ]
                }
              }
            ],
            "condition": {
              "reference": "Condition/9df65352-da86-42d8-9f28-83dbf1a19453"
            }
          }
        ]
      },
      "request": {
        "method": "PUT",
        "url": "Encounter/495105af-7a40-4eb9-9e21-27350888b63c"
      }
    },
    {
      "fullUrl": "https://madie.cms.gov/Procedure/46a0668e-8a7d-4bcb-8475-71908e157431",
      "resource": {
        "resourceType": "Procedure",
        "id": "46a0668e-8a7d-4bcb-8475-71908e157431",
        "meta": {
          "profile": [
            "http://hl7.org/fhir/us/qicore/StructureDefinition/qicore-procedure"
          ]
        },
        "extension": [
          {
            "url": "http://hl7.org/fhir/us/qicore/StructureDefinition/qicore-recorded",
            "valueDateTime": "2013-04-05T09:35:00-04:00"
          }
        ],
        "status": "completed",
        "code": {
          "coding": [
            {
              "system": "http://snomed.info/sct",
              "code": "10745001"
            }
          ]
        },
        "subject": {
          "reference": "Patient/83346c9d-6c4e-4b4d-9f1a-0d476a3772d0"
        },
        "performedDateTime": "2024-02-01T08:00:00.000+00:00"
      },
      "request": {
        "method": "PUT",
        "url": "Procedure/46a0668e-8a7d-4bcb-8475-71908e157431"
      }
    },
    {
      "fullUrl": "https://madie.cms.gov/Condition/9df65352-da86-42d8-9f28-83dbf1a19453",
      "resource": {
        "resourceType": "Condition",
        "id": "9df65352-da86-42d8-9f28-83dbf1a19453",
        "meta": {
          "profile": [
            "http://hl7.org/fhir/us/qicore/StructureDefinition/qicore-condition"
          ]
        },
        "category": [
          {
            "coding": [
              {
                "system": "http://terminology.hl7.org/CodeSystem/condition-category",
                "code": "encounter-diagnosis",
                "display": "Encounter Diagnosis"
              }
            ]
          }
        ],
        "code": {
          "coding": [
            {
              "system": "http://hl7.org/fhir/sid/icd-10-cm",
              "version": "2023",
              "code": "A32.7",
              "display": "Listerial sepsis",
              "userSelected": true
            }
          ]
        },
        "subject": {
          "reference": "Patient/83346c9d-6c4e-4b4d-9f1a-0d476a3772d0"
        },
        "recordedDate": "2024-10-26T08:00:00.000+00:00"
      },
      "request": {
        "method": "PUT",
        "url": "Condition/9df65352-da86-42d8-9f28-83dbf1a19453"
      }
    },
    {
      "fullUrl": "https://madie.cms.gov/Condition/e30c7d82-f885-4229-84dd-26e442f747a9",
      "resource": {
        "resourceType": "Condition",
        "id": "e30c7d82-f885-4229-84dd-26e442f747a9",
        "meta": {
          "profile": [
            "http://hl7.org/fhir/us/qicore/StructureDefinition/qicore-condition"
          ]
        },
        "category": [
          {
            "coding": [
              {
                "system": "http://terminology.hl7.org/CodeSystem/condition-category",
                "code": "encounter-diagnosis",
                "display": "Encounter Diagnosis"
              }
            ]
          }
        ],
        "code": {
          "coding": [
            {
              "system": "http://hl7.org/fhir/sid/icd-10-cm",
              "version": "2023",
              "code": "D50.1",
              "display": "Anemia",
              "userSelected": true
            }
          ]
        },
        "subject": {
          "reference": "Patient/83346c9d-6c4e-4b4d-9f1a-0d476a3772d0"
        },
        "recordedDate": "2024-10-26T08:00:00.000+00:00"
      },
      "request": {
        "method": "PUT",
        "url": "Condition/e30c7d82-f885-4229-84dd-26e442f747a9"
      }
    },
    {
      "fullUrl": "https://madie.cms.gov/MeasureReport/ad67626c-60b5-4798-8a96-86fdb61eb3cb",
      "resource": {
        "resourceType": "MeasureReport",
        "id": "ad67626c-60b5-4798-8a96-86fdb61eb3cb",
        "meta": {
          "profile": [
            "http://hl7.org/fhir/us/cqfmeasures/StructureDefinition/test-case-cqfm"
          ]
        },
        "contained": [
          {
            "resourceType": "Parameters",
            "id": "272b82ec-a19a-406b-8712-a073f6921275-parameters",
            "parameter": [
              {
                "name": "subject",
                "valueString": "83346c9d-6c4e-4b4d-9f1a-0d476a3772d0"
              }
            ]
          }
        ],
        "extension": [
          {
            "url": "http://hl7.org/fhir/us/cqfmeasures/StructureDefinition/cqfm-inputParameters",
            "valueReference": {
              "reference": "#272b82ec-a19a-406b-8712-a073f6921275-parameters"
            }
          },
          {
            "url": "http://hl7.org/fhir/us/cqfmeasures/StructureDefinition/cqfm-testCaseDescription",
            "valueMarkdown": "Risk Variable of Anemia, POA is Yes"
          }
        ],
        "modifierExtension": [
          {
            "url": "http://hl7.org/fhir/us/cqfmeasures/StructureDefinition/cqfm-isTestCase",
            "valueBoolean": true
          }
        ],
        "status": "complete",
        "type": "individual",
        "measure": "https://madie.cms.gov/Measure/SevereObstetricComplicationsFHIR",
        "period": {
          "start": "2024-01-01",
          "end": "2024-12-31"
        },
        "group": [
          {
            "population": [
              {
                "code": {
                  "coding": [
                    {
                      "system": "http://terminology.hl7.org/CodeSystem/measure-population",
                      "code": "initial-population",
                      "display": "Initial Population"
                    }
                  ]
                },
                "count": 1
              },
              {
                "code": {
                  "coding": [
                    {
                      "system": "http://terminology.hl7.org/CodeSystem/measure-population",
                      "code": "denominator",
                      "display": "Denominator"
                    }
                  ]
                },
                "count": 1
              },
              {
                "code": {
                  "coding": [
                    {
                      "system": "http://terminology.hl7.org/CodeSystem/measure-population",
                      "code": "denominator-exclusion",
                      "display": "Denominator Exclusion"
                    }
                  ]
                },
                "count": 0
              },
              {
                "code": {
                  "coding": [
                    {
                      "system": "http://terminology.hl7.org/CodeSystem/measure-population",
                      "code": "numerator",
                      "display": "Numerator"
                    }
                  ]
                },
                "count": 1
              }
            ]
          }
        ],
        "evaluatedResource": [
          {
            "reference": "Patient/83346c9d-6c4e-4b4d-9f1a-0d476a3772d0"
          },
          {
            "reference": "Observation/f033373e-68ee-4af1-974a-dc882e8fa216"
          },
          {
            "reference": "Observation/b5656f9a-1e39-4c92-af98-6b838049487c"
          },
          {
            "reference": "Encounter/495105af-7a40-4eb9-9e21-27350888b63c"
          },
          {
            "reference": "Procedure/46a0668e-8a7d-4bcb-8475-71908e157431"
          },
          {
            "reference": "Condition/9df65352-da86-42d8-9f28-83dbf1a19453"
          },
          {
            "reference": "Condition/e30c7d82-f885-4229-84dd-26e442f747a9"
          }
        ]
      },
      "request": {
        "method": "PUT",
        "url": "MeasureReport/ad67626c-60b5-4798-8a96-86fdb61eb3cb"
      }
    }
  ]
}