{
  "resourceType": "Bundle",
  "id": "6356d43254e383debade75a4",
  "type": "transaction",
  "entry": [
    {
      "fullUrl": "https://madie.cms.gov/Patient/0fcec00e-03f5-4b36-8d9b-184d5d709427",
      "resource": {
        "resourceType": "Patient",
        "id": "0fcec00e-03f5-4b36-8d9b-184d5d709427",
        "meta": {
          "profile": [
            "http://hl7.org/fhir/us/qicore/StructureDefinition/qicore-patient"
          ]
        },
        "text": {
          "status": "generated",
          "div": "<div xmlns=\"http://www.w3.org/1999/xhtml\"><div class=\"hapiHeaderText\">AssPrfDELRelvDt_EQIPStart <b>DENOMPASS </b></div><table class=\"hapiPropertyTable\"><tbody><tr><td>Date of birth</td><td><span>01 February 2004</span></td></tr></tbody></table></div>"
        },
        "extension": [
          {
            "url": "http://hl7.org/fhir/us/core/StructureDefinition/us-core-race",
            "extension": [
              {
                "url": "ombCategory",
                "valueCoding": {
                  "system": "urn:oid:2.16.840.1.113883.6.238",
                  "code": "1002-5",
                  "display": "American Indian or Alaska Native",
                  "userSelected": true
                }
              },
              {
                "url": "text",
                "valueString": "American Indian or Alaska Native"
              }
            ]
          },
          {
            "url": "http://hl7.org/fhir/us/core/StructureDefinition/us-core-ethnicity",
            "extension": [
              {
                "url": "ombCategory",
                "valueCoding": {
                  "system": "urn:oid:2.16.840.1.113883.6.238",
                  "code": "2135-2",
                  "display": "Hispanic or Latino",
                  "userSelected": true
                }
              },
              {
                "url": "text",
                "valueString": "Hispanic or Latino"
              }
            ]
          }
        ],
        "identifier": [
          {
            "type": {
              "coding": [
                {
                  "system": "http://terminology.hl7.org/CodeSystem/v2-0203",
                  "code": "MR"
                }
              ]
            },
            "system": "https://bonnie-fhir.healthit.gov/",
            "value": "6356d43254e383debade75a4"
          }
        ],
        "active": true,
        "name": [
          {
            "use": "usual",
            "family": "DENEXCFail",
            "given": [
              "CovidDxCovidProcedureStrts1159pmDayB4EncStrts"
            ]
          }
        ],
        "gender": "female",
        "birthDate": "2004-02-01"
      },
      "request": {
        "method": "PUT",
        "url": "Patient/0fcec00e-03f5-4b36-8d9b-184d5d709427"
      }
    },
    {
      "fullUrl": "https://madie.cms.gov/Observation/9d5ff689-8b45-4f62-a719-8915d40b957c",
      "resource": {
        "resourceType": "Observation",
        "id": "9d5ff689-8b45-4f62-a719-8915d40b957c",
        "meta": {
          "profile": [
            "http://hl7.org/fhir/us/qicore/StructureDefinition/qicore-observation"
          ]
        },
        "status": "final",
        "category": [
          {
            "coding": [
              {
                "system": "http://terminology.hl7.org/CodeSystem/observation-category",
                "code": "exam",
                "display": "exam",
                "userSelected": true
              }
            ]
          }
        ],
        "code": {
          "coding": [
            {
              "system": "http://loinc.org",
              "code": "93857-1"
            }
          ]
        },
        "subject": {
          "reference": "Patient/0fcec00e-03f5-4b36-8d9b-184d5d709427"
        },
        "effectiveDateTime": "2024-02-01T08:00:00.000+00:00",
        "valueDateTime": "2024-02-01T08:00:00.000+00:00"
      },
      "request": {
        "method": "PUT",
        "url": "Observation/9d5ff689-8b45-4f62-a719-8915d40b957c"
      }
    },
    {
      "fullUrl": "https://madie.cms.gov/Observation/38b6a2ac-e0a2-4269-9018-b61a548127e0",
      "resource": {
        "resourceType": "Observation",
        "id": "38b6a2ac-e0a2-4269-9018-b61a548127e0",
        "meta": {
          "profile": [
            "http://hl7.org/fhir/us/qicore/StructureDefinition/qicore-observation"
          ]
        },
        "status": "final",
        "category": [
          {
            "coding": [
              {
                "system": "http://terminology.hl7.org/CodeSystem/observation-category",
                "code": "exam",
                "display": "exam",
                "userSelected": true
              }
            ]
          }
        ],
        "code": {
          "coding": [
            {
              "system": "http://loinc.org",
              "code": "11778-8"
            }
          ]
        },
        "subject": {
          "reference": "Patient/0fcec00e-03f5-4b36-8d9b-184d5d709427"
        },
        "effectiveDateTime": "2024-02-01T08:00:00.000+00:00",
        "valueDateTime": "2024-02-01T08:00:00.000+00:00"
      },
      "request": {
        "method": "PUT",
        "url": "Observation/38b6a2ac-e0a2-4269-9018-b61a548127e0"
      }
    },
    {
      "fullUrl": "https://madie.cms.gov/Encounter/d8b9143d-55c9-4af5-8687-f49854920d4b",
      "resource": {
        "resourceType": "Encounter",
        "id": "d8b9143d-55c9-4af5-8687-f49854920d4b",
        "meta": {
          "profile": [
            "http://hl7.org/fhir/us/qicore/StructureDefinition/qicore-encounter"
          ]
        },
        "status": "finished",
        "class": {
          "system": "http://terminology.hl7.org/CodeSystem/v3-ActCode",
          "code": "IMP",
          "display": "inpatient encounter"
        },
        "type": [
          {
            "coding": [
              {
                "system": "http://snomed.info/sct",
                "code": "183452005"
              }
            ]
          }
        ],
        "subject": {
          "reference": "Patient/0fcec00e-03f5-4b36-8d9b-184d5d709427"
        },
        "period": {
          "start": "2024-02-01T08:00:00.000Z",
          "end": "2024-02-05T08:15:00.000Z"
        },
        "diagnosis": [
          {
            "condition": {
              "reference": "Condition/b55b5683-579c-432d-bb5b-94d073dad97c"
            }
          }
        ]
      },
      "request": {
        "method": "PUT",
        "url": "Encounter/d8b9143d-55c9-4af5-8687-f49854920d4b"
      }
    },
    {
      "fullUrl": "https://madie.cms.gov/Procedure/f6df5bd9-040f-4282-97bd-f2fc31891ea8",
      "resource": {
        "resourceType": "Procedure",
        "id": "f6df5bd9-040f-4282-97bd-f2fc31891ea8",
        "meta": {
          "profile": [
            "http://hl7.org/fhir/us/qicore/StructureDefinition/qicore-procedure"
          ]
        },
        "extension": [
          {
            "url": "http://hl7.org/fhir/us/qicore/StructureDefinition/qicore-recorded",
            "valueDateTime": "2013-04-05T09:35:00-04:00"
          }
        ],
        "status": "completed",
        "code": {
          "coding": [
            {
              "system": "http://snomed.info/sct",
              "code": "10745001"
            }
          ]
        },
        "subject": {
          "reference": "Patient/0fcec00e-03f5-4b36-8d9b-184d5d709427"
        },
        "performedPeriod": {
          "start": "2024-02-01T08:00:00.000Z",
          "end": "2024-02-05T08:15:00.000Z"
        }
      },
      "request": {
        "method": "PUT",
        "url": "Procedure/f6df5bd9-040f-4282-97bd-f2fc31891ea8"
      }
    },
    {
      "fullUrl": "https://madie.cms.gov/Condition/b55b5683-579c-432d-bb5b-94d073dad97c",
      "resource": {
        "resourceType": "Condition",
        "id": "b55b5683-579c-432d-bb5b-94d073dad97c",
        "meta": {
          "profile": [
            "http://hl7.org/fhir/us/qicore/StructureDefinition/qicore-condition"
          ]
        },
        "category": [
          {
            "coding": [
              {
                "system": "http://terminology.hl7.org/CodeSystem/condition-category",
                "code": "encounter-diagnosis",
                "display": "Encounter Diagnosis"
              }
            ]
          }
        ],
        "code": {
          "coding": [
            {
              "system": "http://snomed.info/sct",
              "version": "2022-09",
              "code": "840539006",
              "display": "Disease caused by severe acute respiratory syndrome coronavirus 2 (disorder)",
              "userSelected": true
            }
          ]
        },
        "subject": {
          "reference": "Patient/0fcec00e-03f5-4b36-8d9b-184d5d709427"
        }
      },
      "request": {
        "method": "PUT",
        "url": "Condition/b55b5683-579c-432d-bb5b-94d073dad97c"
      }
    },
    {
      "fullUrl": "https://madie.cms.gov/Procedure/2d182186-e008-42a2-b908-be025a2eb9c4",
      "resource": {
        "resourceType": "Procedure",
        "id": "2d182186-e008-42a2-b908-be025a2eb9c4",
        "meta": {
          "profile": [
            "http://hl7.org/fhir/us/qicore/StructureDefinition/qicore-procedure"
          ]
        },
        "extension": [
          {
            "url": "http://hl7.org/fhir/us/qicore/StructureDefinition/qicore-recorded",
            "valueDateTime": "2013-04-05T09:35:00-04:00"
          }
        ],
        "status": "completed",
        "code": {
          "coding": [
            {
              "system": "http://snomed.info/sct",
              "version": "2022-09",
              "code": "233573008",
              "display": "Extracorporeal membrane oxygenation (procedure)",
              "userSelected": true
            }
          ]
        },
        "subject": {
          "reference": "Patient/0fcec00e-03f5-4b36-8d9b-184d5d709427"
        },
        "performedDateTime": "2022-01-31T23:59:00.000+00:00"
      },
      "request": {
        "method": "PUT",
        "url": "Procedure/2d182186-e008-42a2-b908-be025a2eb9c4"
      }
    },
    {
      "fullUrl": "https://madie.cms.gov/Coverage/98f1af7f-0df8-4f66-bf5b-205bc23067c0",
      "resource": {
        "resourceType": "Coverage",
        "id": "98f1af7f-0df8-4f66-bf5b-205bc23067c0",
        "meta": {
          "profile": [
            "http://hl7.org/fhir/us/qicore/StructureDefinition/qicore-coverage"
          ]
        },
        "status": "active",
        "beneficiary": {
          "reference": "Patient/0fcec00e-03f5-4b36-8d9b-184d5d709427"
        },
        "payor": [
          {
            "reference": "Organization/2afd026f-7a3a-4095-a9ac-fe4b0f5afe74"
          }
        ]
      },
      "request": {
        "method": "PUT",
        "url": "Coverage/98f1af7f-0df8-4f66-bf5b-205bc23067c0"
      }
    },
    {
      "fullUrl": "https://madie.cms.gov/Organization/2afd026f-7a3a-4095-a9ac-fe4b0f5afe74",
      "resource": {
        "resourceType": "Organization",
        "id": "2afd026f-7a3a-4095-a9ac-fe4b0f5afe74",
        "meta": {
          "profile": [
            "http://hl7.org/fhir/us/qicore/StructureDefinition/qicore-organization"
          ]
        },
        "identifier": [
          {
            "use": "temp",
            "system": "urn:oid:2.16.840.1.113883.4.4",
            "value": "21-3259825"
          }
        ],
        "active": true,
        "type": [
          {
            "coding": [
              {
                "system": "http://terminology.hl7.org/CodeSystem/organization-type",
                "code": "pay",
                "display": "Payer"
              }
            ]
          }
        ],
        "name": "Blue Cross Blue Shield of Texas",
        "telecom": [
          {
            "system": "phone",
            "value": "(+1) 972-766-6900"
          }
        ],
        "address": [
          {
            "use": "billing",
            "type": "postal",
            "line": [
              "P.O. Box 660044"
            ],
            "city": "Dallas",
            "state": "TX",
            "postalCode": "75266-0044",
            "country": "USA"
          }
        ]
      },
      "request": {
        "method": "PUT",
        "url": "Organization/2afd026f-7a3a-4095-a9ac-fe4b0f5afe74"
      }
    },
    {
      "fullUrl": "https://madie.cms.gov/Practitioner/b1fdefcf-1519-462a-b738-b66212bf08ba",
      "resource": {
        "resourceType": "Practitioner",
        "id": "b1fdefcf-1519-462a-b738-b66212bf08ba",
        "identifier": [
          {
            "system": "http://hl7.org/fhir/sid/us-npi",
            "value": "123456"
          }
        ],
        "name": [
          {
            "family": "Evil",
            "prefix": [
              "Dr"
            ]
          }
        ]
      },
      "request": {
        "method": "PUT",
        "url": "Practitioner/b1fdefcf-1519-462a-b738-b66212bf08ba"
      }
    },
    {
      "fullUrl": "https://madie.cms.gov/MeasureReport/155e79c5-c8a2-4328-9fc7-6f36b0e12b09",
      "resource": {
        "resourceType": "MeasureReport",
        "id": "155e79c5-c8a2-4328-9fc7-6f36b0e12b09",
        "meta": {
          "profile": [
            "http://hl7.org/fhir/us/cqfmeasures/StructureDefinition/test-case-cqfm"
          ]
        },
        "contained": [
          {
            "resourceType": "Parameters",
            "id": "bbd99ece-0456-43f6-9cee-fe605e49aada-parameters",
            "parameter": [
              {
                "name": "subject",
                "valueString": "0fcec00e-03f5-4b36-8d9b-184d5d709427"
              }
            ]
          }
        ],
        "extension": [
          {
            "url": "http://hl7.org/fhir/us/cqfmeasures/StructureDefinition/cqfm-inputParameters",
            "valueReference": {
              "reference": "#bbd99ece-0456-43f6-9cee-fe605e49aada-parameters"
            }
          },
          {
            "url": "http://hl7.org/fhir/us/cqfmeasures/StructureDefinition/cqfm-testCaseDescription",
            "valueMarkdown": "Patient with confirmed COVID diagnosis and COVID related procedure relevant date/time which starts 11:59 pm day before encounter starts\n"
          }
        ],
        "modifierExtension": [
          {
            "url": "http://hl7.org/fhir/us/cqfmeasures/StructureDefinition/cqfm-isTestCase",
            "valueBoolean": true
          }
        ],
        "status": "complete",
        "type": "individual",
        "measure": "https://madie.cms.gov/Measure/SevereObstetricComplicationsFHIR",
        "period": {
          "start": "2024-01-01",
          "end": "2024-12-31"
        },
        "group": [
          {
            "population": [
              {
                "code": {
                  "coding": [
                    {
                      "system": "http://terminology.hl7.org/CodeSystem/measure-population",
                      "code": "initial-population",
                      "display": "Initial Population"
                    }
                  ]
                },
                "count": 1
              },
              {
                "code": {
                  "coding": [
                    {
                      "system": "http://terminology.hl7.org/CodeSystem/measure-population",
                      "code": "denominator",
                      "display": "Denominator"
                    }
                  ]
                },
                "count": 1
              },
              {
                "code": {
                  "coding": [
                    {
                      "system": "http://terminology.hl7.org/CodeSystem/measure-population",
                      "code": "denominator-exclusion",
                      "display": "Denominator Exclusion"
                    }
                  ]
                },
                "count": 0
              },
              {
                "code": {
                  "coding": [
                    {
                      "system": "http://terminology.hl7.org/CodeSystem/measure-population",
                      "code": "numerator",
                      "display": "Numerator"
                    }
                  ]
                },
                "count": 0
              }
            ]
          }
        ],
        "evaluatedResource": [
          {
            "reference": "Patient/0fcec00e-03f5-4b36-8d9b-184d5d709427"
          },
          {
            "reference": "Observation/9d5ff689-8b45-4f62-a719-8915d40b957c"
          },
          {
            "reference": "Observation/38b6a2ac-e0a2-4269-9018-b61a548127e0"
          },
          {
            "reference": "Encounter/d8b9143d-55c9-4af5-8687-f49854920d4b"
          },
          {
            "reference": "Procedure/f6df5bd9-040f-4282-97bd-f2fc31891ea8"
          },
          {
            "reference": "Condition/b55b5683-579c-432d-bb5b-94d073dad97c"
          },
          {
            "reference": "Procedure/2d182186-e008-42a2-b908-be025a2eb9c4"
          },
          {
            "reference": "Coverage/98f1af7f-0df8-4f66-bf5b-205bc23067c0"
          },
          {
            "reference": "Organization/2afd026f-7a3a-4095-a9ac-fe4b0f5afe74"
          },
          {
            "reference": "Practitioner/b1fdefcf-1519-462a-b738-b66212bf08ba"
          }
        ]
      },
      "request": {
        "method": "PUT",
        "url": "MeasureReport/155e79c5-c8a2-4328-9fc7-6f36b0e12b09"
      }
    }
  ]
}