{
  "resourceType": "Bundle",
  "id": "6356d03854e383debade759e",
  "type": "transaction",
  "entry": [
    {
      "fullUrl": "https://madie.cms.gov/Patient/a631d6da-3164-4b94-a035-77b6024628ef",
      "resource": {
        "resourceType": "Patient",
        "id": "a631d6da-3164-4b94-a035-77b6024628ef",
        "meta": {
          "profile": [
            "http://hl7.org/fhir/us/qicore/StructureDefinition/qicore-patient"
          ]
        },
        "text": {
          "status": "generated",
          "div": "<div xmlns=\"http://www.w3.org/1999/xhtml\"><div class=\"hapiHeaderText\">DxCodeOf20Weeks <b>DENOMPASS </b></div><table class=\"hapiPropertyTable\"><tbody><tr><td>Date of birth</td><td><span>01 February 2004</span></td></tr></tbody></table></div>"
        },
        "extension": [
          {
            "url": "http://hl7.org/fhir/us/core/StructureDefinition/us-core-race",
            "extension": [
              {
                "url": "ombCategory",
                "valueCoding": {
                  "system": "urn:oid:2.16.840.1.113883.6.238",
                  "code": "1002-5",
                  "display": "American Indian or Alaska Native",
                  "userSelected": true
                }
              },
              {
                "url": "text",
                "valueString": "American Indian or Alaska Native"
              }
            ]
          },
          {
            "url": "http://hl7.org/fhir/us/core/StructureDefinition/us-core-ethnicity",
            "extension": [
              {
                "url": "ombCategory",
                "valueCoding": {
                  "system": "urn:oid:2.16.840.1.113883.6.238",
                  "code": "2135-2",
                  "display": "Hispanic or Latino",
                  "userSelected": true
                }
              },
              {
                "url": "text",
                "valueString": "Hispanic or Latino"
              }
            ]
          }
        ],
        "identifier": [
          {
            "type": {
              "coding": [
                {
                  "system": "http://terminology.hl7.org/CodeSystem/v2-0203",
                  "code": "MR"
                }
              ]
            },
            "system": "https://bonnie-fhir.healthit.gov/",
            "value": "6356d03854e383debade759e"
          }
        ],
        "active": true,
        "name": [
          {
            "use": "usual",
            "family": "DENOMPass",
            "given": [
              "DxCodeOf20Weeks"
            ]
          }
        ],
        "gender": "female",
        "birthDate": "2004-02-01"
      },
      "request": {
        "method": "PUT",
        "url": "Patient/a631d6da-3164-4b94-a035-77b6024628ef"
      }
    },
    {
      "fullUrl": "https://madie.cms.gov/Observation/eaf33d3a-37e1-4450-97d5-19a468cd3431",
      "resource": {
        "resourceType": "Observation",
        "id": "eaf33d3a-37e1-4450-97d5-19a468cd3431",
        "meta": {
          "profile": [
            "http://hl7.org/fhir/us/qicore/StructureDefinition/qicore-observation"
          ]
        },
        "status": "final",
        "category": [
          {
            "coding": [
              {
                "system": "http://terminology.hl7.org/CodeSystem/observation-category",
                "code": "exam",
                "display": "exam",
                "userSelected": true
              }
            ]
          }
        ],
        "code": {
          "coding": [
            {
              "system": "http://loinc.org",
              "code": "93857-1"
            }
          ]
        },
        "subject": {
          "reference": "Patient/a631d6da-3164-4b94-a035-77b6024628ef"
        },
        "effectiveDateTime": "2024-02-01T08:00:00.000+00:00",
        "valueDateTime": "2024-02-01T08:00:00.000+00:00"
      },
      "request": {
        "method": "PUT",
        "url": "Observation/eaf33d3a-37e1-4450-97d5-19a468cd3431"
      }
    },
    {
      "fullUrl": "https://madie.cms.gov/Encounter/8a10236f-93a1-45f7-915d-7ffd77f85bdc",
      "resource": {
        "resourceType": "Encounter",
        "id": "8a10236f-93a1-45f7-915d-7ffd77f85bdc",
        "meta": {
          "profile": [
            "http://hl7.org/fhir/us/qicore/StructureDefinition/qicore-encounter"
          ]
        },
        "status": "finished",
        "class": {
          "system": "http://terminology.hl7.org/CodeSystem/v3-ActCode",
          "code": "IMP",
          "display": "inpatient encounter"
        },
        "type": [
          {
            "coding": [
              {
                "system": "http://snomed.info/sct",
                "code": "183452005"
              }
            ]
          }
        ],
        "subject": {
          "reference": "Patient/a631d6da-3164-4b94-a035-77b6024628ef"
        },
        "period": {
          "start": "2024-02-01T08:00:00.000Z",
          "end": "2024-02-05T08:15:00.000Z"
        },
        "diagnosis": [
          {
            "condition": {
              "reference": "Condition/6105f8bc-fa12-4057-a875-f90e39c2f6a6"
            }
          }
        ]
      },
      "request": {
        "method": "PUT",
        "url": "Encounter/8a10236f-93a1-45f7-915d-7ffd77f85bdc"
      }
    },
    {
      "fullUrl": "https://madie.cms.gov/Procedure/feec158f-5933-493d-a3cf-bbcf6ec06103",
      "resource": {
        "resourceType": "Procedure",
        "id": "feec158f-5933-493d-a3cf-bbcf6ec06103",
        "meta": {
          "profile": [
            "http://hl7.org/fhir/us/qicore/StructureDefinition/qicore-procedure"
          ]
        },
        "extension": [
          {
            "url": "http://hl7.org/fhir/us/qicore/StructureDefinition/qicore-recorded",
            "valueDateTime": "2013-04-05T09:35:00-04:00"
          }
        ],
        "status": "completed",
        "code": {
          "coding": [
            {
              "system": "http://snomed.info/sct",
              "code": "10745001"
            }
          ]
        },
        "subject": {
          "reference": "Patient/a631d6da-3164-4b94-a035-77b6024628ef"
        },
        "performedPeriod": {
          "start": "2024-02-01T08:00:00.000Z",
          "end": "2024-02-05T08:15:00.000Z"
        }
      },
      "request": {
        "method": "PUT",
        "url": "Procedure/feec158f-5933-493d-a3cf-bbcf6ec06103"
      }
    },
    {
      "fullUrl": "https://madie.cms.gov/Condition/6105f8bc-fa12-4057-a875-f90e39c2f6a6",
      "resource": {
        "resourceType": "Condition",
        "id": "6105f8bc-fa12-4057-a875-f90e39c2f6a6",
        "meta": {
          "profile": [
            "http://hl7.org/fhir/us/qicore/StructureDefinition/qicore-condition"
          ]
        },
        "category": [
          {
            "coding": [
              {
                "system": "http://terminology.hl7.org/CodeSystem/condition-category",
                "code": "encounter-diagnosis",
                "display": "Encounter Diagnosis"
              }
            ]
          }
        ],
        "code": {
          "coding": [
            {
              "system": "http://snomed.info/sct",
              "version": "2023-03",
              "code": "23464008",
              "display": "Gestation period, 20 weeks",
              "userSelected": true
            }
          ]
        },
        "subject": {
          "reference": "Patient/a631d6da-3164-4b94-a035-77b6024628ef"
        },
        "recordedDate": "2024-10-24T08:00:00.000+00:00"
      },
      "request": {
        "method": "PUT",
        "url": "Condition/6105f8bc-fa12-4057-a875-f90e39c2f6a6"
      }
    },
    {
      "fullUrl": "https://madie.cms.gov/Coverage/e81ed2a8-61a6-47cf-bcdf-68e176451cbf",
      "resource": {
        "resourceType": "Coverage",
        "id": "e81ed2a8-61a6-47cf-bcdf-68e176451cbf",
        "meta": {
          "profile": [
            "http://hl7.org/fhir/us/qicore/StructureDefinition/qicore-coverage"
          ]
        },
        "status": "active",
        "beneficiary": {
          "reference": "Patient/a631d6da-3164-4b94-a035-77b6024628ef"
        },
        "payor": [
          {
            "reference": "Organization/3c4fa60e-e3ab-48a9-9304-8aabe512663a"
          }
        ]
      },
      "request": {
        "method": "PUT",
        "url": "Coverage/e81ed2a8-61a6-47cf-bcdf-68e176451cbf"
      }
    },
    {
      "fullUrl": "https://madie.cms.gov/Organization/3c4fa60e-e3ab-48a9-9304-8aabe512663a",
      "resource": {
        "resourceType": "Organization",
        "id": "3c4fa60e-e3ab-48a9-9304-8aabe512663a",
        "meta": {
          "profile": [
            "http://hl7.org/fhir/us/qicore/StructureDefinition/qicore-organization"
          ]
        },
        "identifier": [
          {
            "use": "temp",
            "system": "urn:oid:2.16.840.1.113883.4.4",
            "value": "21-3259825"
          }
        ],
        "active": true,
        "type": [
          {
            "coding": [
              {
                "system": "http://terminology.hl7.org/CodeSystem/organization-type",
                "code": "pay",
                "display": "Payer"
              }
            ]
          }
        ],
        "name": "Blue Cross Blue Shield of Texas",
        "telecom": [
          {
            "system": "phone",
            "value": "(+1) 972-766-6900"
          }
        ],
        "address": [
          {
            "use": "billing",
            "type": "postal",
            "line": [
              "P.O. Box 660044"
            ],
            "city": "Dallas",
            "state": "TX",
            "postalCode": "75266-0044",
            "country": "USA"
          }
        ]
      },
      "request": {
        "method": "PUT",
        "url": "Organization/3c4fa60e-e3ab-48a9-9304-8aabe512663a"
      }
    },
    {
      "fullUrl": "https://madie.cms.gov/Practitioner/61ebc89c-208f-425a-a63d-e72bbb39e414",
      "resource": {
        "resourceType": "Practitioner",
        "id": "61ebc89c-208f-425a-a63d-e72bbb39e414",
        "identifier": [
          {
            "system": "http://hl7.org/fhir/sid/us-npi",
            "value": "123456"
          }
        ],
        "name": [
          {
            "family": "Evil",
            "prefix": [
              "Dr"
            ]
          }
        ]
      },
      "request": {
        "method": "PUT",
        "url": "Practitioner/61ebc89c-208f-425a-a63d-e72bbb39e414"
      }
    },
    {
      "fullUrl": "https://madie.cms.gov/MeasureReport/37e5e334-ea23-44fd-aa5b-0a04302a1e0a",
      "resource": {
        "resourceType": "MeasureReport",
        "id": "37e5e334-ea23-44fd-aa5b-0a04302a1e0a",
        "meta": {
          "profile": [
            "http://hl7.org/fhir/us/cqfmeasures/StructureDefinition/test-case-cqfm"
          ]
        },
        "contained": [
          {
            "resourceType": "Parameters",
            "id": "5c2e288c-40ff-40d5-abb1-10df41998447-parameters",
            "parameter": [
              {
                "name": "subject",
                "valueString": "a631d6da-3164-4b94-a035-77b6024628ef"
              }
            ]
          }
        ],
        "extension": [
          {
            "url": "http://hl7.org/fhir/us/cqfmeasures/StructureDefinition/cqfm-inputParameters",
            "valueReference": {
              "reference": "#5c2e288c-40ff-40d5-abb1-10df41998447-parameters"
            }
          },
          {
            "url": "http://hl7.org/fhir/us/cqfmeasures/StructureDefinition/cqfm-testCaseDescription",
            "valueMarkdown": "Diagnosis Code of 20 Weeks."
          }
        ],
        "modifierExtension": [
          {
            "url": "http://hl7.org/fhir/us/cqfmeasures/StructureDefinition/cqfm-isTestCase",
            "valueBoolean": true
          }
        ],
        "status": "complete",
        "type": "individual",
        "measure": "https://madie.cms.gov/Measure/SevereObstetricComplicationsFHIR",
        "period": {
          "start": "2024-01-01",
          "end": "2024-12-31"
        },
        "group": [
          {
            "population": [
              {
                "code": {
                  "coding": [
                    {
                      "system": "http://terminology.hl7.org/CodeSystem/measure-population",
                      "code": "initial-population",
                      "display": "Initial Population"
                    }
                  ]
                },
                "count": 1
              },
              {
                "code": {
                  "coding": [
                    {
                      "system": "http://terminology.hl7.org/CodeSystem/measure-population",
                      "code": "denominator",
                      "display": "Denominator"
                    }
                  ]
                },
                "count": 1
              },
              {
                "code": {
                  "coding": [
                    {
                      "system": "http://terminology.hl7.org/CodeSystem/measure-population",
                      "code": "denominator-exclusion",
                      "display": "Denominator Exclusion"
                    }
                  ]
                },
                "count": 0
              },
              {
                "code": {
                  "coding": [
                    {
                      "system": "http://terminology.hl7.org/CodeSystem/measure-population",
                      "code": "numerator",
                      "display": "Numerator"
                    }
                  ]
                },
                "count": 0
              }
            ]
          }
        ],
        "evaluatedResource": [
          {
            "reference": "Patient/a631d6da-3164-4b94-a035-77b6024628ef"
          },
          {
            "reference": "Observation/eaf33d3a-37e1-4450-97d5-19a468cd3431"
          },
          {
            "reference": "Encounter/8a10236f-93a1-45f7-915d-7ffd77f85bdc"
          },
          {
            "reference": "Procedure/feec158f-5933-493d-a3cf-bbcf6ec06103"
          },
          {
            "reference": "Condition/6105f8bc-fa12-4057-a875-f90e39c2f6a6"
          },
          {
            "reference": "Coverage/e81ed2a8-61a6-47cf-bcdf-68e176451cbf"
          },
          {
            "reference": "Organization/3c4fa60e-e3ab-48a9-9304-8aabe512663a"
          },
          {
            "reference": "Practitioner/61ebc89c-208f-425a-a63d-e72bbb39e414"
          }
        ]
      },
      "request": {
        "method": "PUT",
        "url": "MeasureReport/37e5e334-ea23-44fd-aa5b-0a04302a1e0a"
      }
    }
  ]
}