{
  "resourceType": "Bundle",
  "id": "6129133702c62a011f2e66b1",
  "type": "transaction",
  "entry": [
    {
      "fullUrl": "https://madie.cms.gov/Patient/fd4c3acb-4e4e-4d70-a787-de4f269baed5",
      "resource": {
        "resourceType": "Patient",
        "id": "fd4c3acb-4e4e-4d70-a787-de4f269baed5",
        "meta": {
          "profile": [
            "http://hl7.org/fhir/us/qicore/StructureDefinition/qicore-patient"
          ]
        },
        "text": {
          "status": "generated",
          "div": "<div xmlns=\"http://www.w3.org/1999/xhtml\"><div class=\"hapiHeaderText\">age_eq18 <b>IPPASS </b></div><table class=\"hapiPropertyTable\"><tbody><tr><td>Identifier</td><td>863343be4401c0595cb63d1a10a15d35</td></tr><tr><td>Date of birth</td><td><span>31 May 1994</span></td></tr></tbody></table></div>"
        },
        "extension": [
          {
            "url": "http://hl7.org/fhir/us/core/StructureDefinition/us-core-race",
            "extension": [
              {
                "url": "ombCategory",
                "valueCoding": {
                  "system": "urn:oid:2.16.840.1.113883.6.238",
                  "code": "1002-5",
                  "display": "American Indian or Alaska Native",
                  "userSelected": true
                }
              },
              {
                "url": "text",
                "valueString": "American Indian or Alaska Native"
              }
            ]
          },
          {
            "url": "http://hl7.org/fhir/us/core/StructureDefinition/us-core-ethnicity",
            "extension": [
              {
                "url": "ombCategory",
                "valueCoding": {
                  "system": "urn:oid:2.16.840.1.113883.6.238",
                  "code": "2135-2",
                  "display": "Hispanic or Latino",
                  "userSelected": true
                }
              },
              {
                "url": "text",
                "valueString": "Hispanic or Latino"
              }
            ]
          }
        ],
        "identifier": [
          {
            "type": {
              "coding": [
                {
                  "system": "http://terminology.hl7.org/CodeSystem/v2-0203",
                  "code": "MR"
                }
              ]
            },
            "system": "https://bonnie-fhir.healthit.gov/",
            "value": "6129133702c62a011f2e66b1"
          }
        ],
        "active": true,
        "name": [
          {
            "use": "usual",
            "family": "IPPass",
            "given": [
              "age_eq18"
            ]
          }
        ],
        "gender": "male",
        "birthDate": "2006-05-31"
      },
      "request": {
        "method": "PUT",
        "url": "Patient/fd4c3acb-4e4e-4d70-a787-de4f269baed5"
      }
    },
    {
      "fullUrl": "https://madie.cms.gov/Encounter/327233b3-6a7c-4b94-bca0-67c33ceb4203",
      "resource": {
        "resourceType": "Encounter",
        "id": "327233b3-6a7c-4b94-bca0-67c33ceb4203",
        "meta": {
          "profile": [
            "http://hl7.org/fhir/us/qicore/StructureDefinition/qicore-encounter"
          ]
        },
        "status": "finished",
        "class": {
          "system": "http://terminology.hl7.org/CodeSystem/v3-ActCode",
          "code": "IMP",
          "display": "inpatient encounter",
          "userSelected": true
        },
        "type": [
          {
            "coding": [
              {
                "system": "http://snomed.info/sct",
                "code": "32485007"
              }
            ]
          }
        ],
        "subject": {
          "reference": "Patient/fd4c3acb-4e4e-4d70-a787-de4f269baed5"
        },
        "period": {
          "start": "2025-06-15T09:30:00.000+00:00",
          "end": "2025-10-12T10:30:00.000+00:00"
        },
        "length": {
          "value": 119,
          "unit": "days"
        },
        "diagnosis": [
          {
            "condition": {
              "reference": "Condition/3250c4cb-1e07-428b-a19d-edfb3ce244f5"
            },
            "use": {
              "coding": [
                {
                  "system": "http://terminology.hl7.org/CodeSystem/diagnosis-role",
                  "code": "billing",
                  "display": "Billing"
                }
              ]
            },
            "rank": 1
          }
        ]
      },
      "request": {
        "method": "PUT",
        "url": "Encounter/327233b3-6a7c-4b94-bca0-67c33ceb4203"
      }
    },
    {
      "fullUrl": "https://madie.cms.gov/MedicationRequest/553af773-3eb8-4fcb-92c6-9034f942ba63",
      "resource": {
        "resourceType": "MedicationRequest",
        "id": "553af773-3eb8-4fcb-92c6-9034f942ba63",
        "meta": {
          "profile": [
            "http://hl7.org/fhir/us/qicore/StructureDefinition/qicore-medicationrequest"
          ]
        },
        "status": "active",
        "intent": "order",
        "category": [
          {
            "coding": [
              {
                "system": "http://terminology.hl7.org/CodeSystem/medicationrequest-category",
                "code": "discharge",
                "display": "Discharge",
                "userSelected": true
              }
            ]
          }
        ],
        "medicationCodeableConcept": {
          "coding": [
            {
              "system": "http://www.nlm.nih.gov/research/umls/rxnorm",
              "code": "1037045"
            }
          ]
        },
        "subject": {
          "reference": "Patient/fd4c3acb-4e4e-4d70-a787-de4f269baed5"
        },
        "authoredOn": "2025-10-10T10:00:00.000+00:00",
        "requester": {
          "reference": "Practitioner/example"
        }
      },
      "request": {
        "method": "PUT",
        "url": "MedicationRequest/553af773-3eb8-4fcb-92c6-9034f942ba63"
      }
    },
    {
      "fullUrl": "https://madie.cms.gov/Condition/3250c4cb-1e07-428b-a19d-edfb3ce244f5",
      "resource": {
        "resourceType": "Condition",
        "id": "3250c4cb-1e07-428b-a19d-edfb3ce244f5",
        "meta": {
          "profile": [
            "http://hl7.org/fhir/us/qicore/StructureDefinition/qicore-condition"
          ]
        },
        "clinicalStatus": {
          "coding": [
            {
              "system": "http://terminology.hl7.org/CodeSystem/condition-clinical",
              "code": "active"
            }
          ]
        },
        "verificationStatus": {
          "coding": [
            {
              "system": "http://terminology.hl7.org/CodeSystem/condition-ver-status",
              "code": "confirmed"
            }
          ]
        },
        "category": [
          {
            "coding": [
              {
                "system": "http://terminology.hl7.org/CodeSystem/condition-category",
                "code": "encounter-diagnosis",
                "display": "Encounter Diagnosis"
              }
            ]
          }
        ],
        "code": {
          "coding": [
            {
              "system": "http://snomed.info/sct",
              "version": "2020-09",
              "code": "111297002",
              "display": "Nonparalytic stroke (disorder)",
              "userSelected": true
            }
          ]
        },
        "subject": {
          "reference": "Patient/fd4c3acb-4e4e-4d70-a787-de4f269baed5"
        },
        "recordedDate": "2025-07-15T08:00:00.000+00:00"
      },
      "request": {
        "method": "PUT",
        "url": "Condition/3250c4cb-1e07-428b-a19d-edfb3ce244f5"
      }
    },
    {
      "fullUrl": "https://madie.cms.gov/Coverage/60bb396b-f12f-40af-b992-d14c40e7b5e2",
      "resource": {
        "resourceType": "Coverage",
        "id": "60bb396b-f12f-40af-b992-d14c40e7b5e2",
        "meta": {
          "profile": [
            "http://hl7.org/fhir/us/qicore/StructureDefinition/qicore-coverage"
          ]
        },
        "status": "active",
        "beneficiary": {
          "reference": "Patient/fd4c3acb-4e4e-4d70-a787-de4f269baed5"
        },
        "payor": [
          {
            "reference": "Organization/c9aeaa0b-f37f-4883-bce4-f8c6ebf995e1"
          }
        ]
      },
      "request": {
        "method": "PUT",
        "url": "Coverage/60bb396b-f12f-40af-b992-d14c40e7b5e2"
      }
    },
    {
      "fullUrl": "https://madie.cms.gov/Organization/c9aeaa0b-f37f-4883-bce4-f8c6ebf995e1",
      "resource": {
        "resourceType": "Organization",
        "id": "c9aeaa0b-f37f-4883-bce4-f8c6ebf995e1",
        "meta": {
          "profile": [
            "http://hl7.org/fhir/us/qicore/StructureDefinition/qicore-organization"
          ]
        },
        "identifier": [
          {
            "use": "temp",
            "system": "urn:oid:2.16.840.1.113883.4.4",
            "value": "21-3259825"
          }
        ],
        "active": true,
        "type": [
          {
            "coding": [
              {
                "system": "http://terminology.hl7.org/CodeSystem/organization-type",
                "code": "pay",
                "display": "Payer"
              }
            ]
          }
        ],
        "name": "Blue Cross Blue Shield of Texas",
        "telecom": [
          {
            "system": "phone",
            "value": "(+1) 972-766-6900"
          }
        ],
        "address": [
          {
            "use": "billing",
            "type": "postal",
            "line": [
              "P.O. Box 660044"
            ],
            "city": "Dallas",
            "state": "TX",
            "postalCode": "75266-0044",
            "country": "USA"
          }
        ]
      },
      "request": {
        "method": "PUT",
        "url": "Organization/c9aeaa0b-f37f-4883-bce4-f8c6ebf995e1"
      }
    },
    {
      "fullUrl": "https://madie.cms.gov/MeasureReport/504b1d9e-09ed-4aa6-abb5-6436283acd47",
      "resource": {
        "resourceType": "MeasureReport",
        "id": "504b1d9e-09ed-4aa6-abb5-6436283acd47",
        "meta": {
          "profile": [
            "http://hl7.org/fhir/us/cqfmeasures/StructureDefinition/test-case-cqfm"
          ]
        },
        "contained": [
          {
            "resourceType": "Parameters",
            "id": "652a24fc-548f-470b-bde3-546ce1bd1c05-parameters",
            "parameter": [
              {
                "name": "subject",
                "valueString": "fd4c3acb-4e4e-4d70-a787-de4f269baed5"
              }
            ]
          }
        ],
        "extension": [
          {
            "url": "http://hl7.org/fhir/us/cqfmeasures/StructureDefinition/cqfm-inputParameters",
            "valueReference": {
              "reference": "#652a24fc-548f-470b-bde3-546ce1bd1c05-parameters"
            }
          },
          {
            "url": "http://hl7.org/fhir/us/cqfmeasures/StructureDefinition/cqfm-testCaseDescription",
            "valueMarkdown": "Patient is  18 with Non-Elective Inpatient Encounter (LOS 120 days) with principal diagnosis of ischemic stroke ends during MP received antithrombotic during IP encounter\n"
          }
        ],
        "modifierExtension": [
          {
            "url": "http://hl7.org/fhir/us/cqfmeasures/StructureDefinition/cqfm-isTestCase",
            "valueBoolean": true
          }
        ],
        "status": "complete",
        "type": "individual",
        "measure": "https://madie.cms.gov/Measure/DischargedonAntithromboticTherapyFHIR",
        "period": {
          "start": "2025-01-01",
          "end": "2025-12-31"
        },
        "group": [
          {
            "population": [
              {
                "code": {
                  "coding": [
                    {
                      "system": "http://terminology.hl7.org/CodeSystem/measure-population",
                      "code": "initial-population",
                      "display": "Initial Population"
                    }
                  ]
                },
                "count": 1
              },
              {
                "code": {
                  "coding": [
                    {
                      "system": "http://terminology.hl7.org/CodeSystem/measure-population",
                      "code": "denominator",
                      "display": "Denominator"
                    }
                  ]
                },
                "count": 1
              },
              {
                "code": {
                  "coding": [
                    {
                      "system": "http://terminology.hl7.org/CodeSystem/measure-population",
                      "code": "denominator-exclusion",
                      "display": "Denominator Exclusion"
                    }
                  ]
                },
                "count": 0
              },
              {
                "code": {
                  "coding": [
                    {
                      "system": "http://terminology.hl7.org/CodeSystem/measure-population",
                      "code": "numerator",
                      "display": "Numerator"
                    }
                  ]
                },
                "count": 1
              },
              {
                "code": {
                  "coding": [
                    {
                      "system": "http://terminology.hl7.org/CodeSystem/measure-population",
                      "code": "denominator-exception",
                      "display": "Denominator Exception"
                    }
                  ]
                },
                "count": 0
              }
            ]
          }
        ],
        "evaluatedResource": [
          {
            "reference": "Patient/fd4c3acb-4e4e-4d70-a787-de4f269baed5"
          },
          {
            "reference": "Encounter/327233b3-6a7c-4b94-bca0-67c33ceb4203"
          },
          {
            "reference": "MedicationRequest/553af773-3eb8-4fcb-92c6-9034f942ba63"
          },
          {
            "reference": "Condition/3250c4cb-1e07-428b-a19d-edfb3ce244f5"
          },
          {
            "reference": "Coverage/60bb396b-f12f-40af-b992-d14c40e7b5e2"
          },
          {
            "reference": "Organization/c9aeaa0b-f37f-4883-bce4-f8c6ebf995e1"
          }
        ]
      },
      "request": {
        "method": "PUT",
        "url": "MeasureReport/504b1d9e-09ed-4aa6-abb5-6436283acd47"
      }
    }
  ]
}