{
  "resourceType": "Bundle",
  "id": "63594c7a6aee9629c82981df",
  "type": "transaction",
  "entry": [
    {
      "fullUrl": "https://madie.cms.gov/Patient/468b272c-ae69-4a0a-b57a-68db9af541f1",
      "resource": {
        "resourceType": "Patient",
        "id": "468b272c-ae69-4a0a-b57a-68db9af541f1",
        "meta": {
          "profile": [
            "http://hl7.org/fhir/us/qicore/StructureDefinition/qicore-patient"
          ]
        },
        "text": {
          "status": "generated",
          "div": "<div xmlns=\"http://www.w3.org/1999/xhtml\"><div class=\"hapiHeaderText\">Risk_SubstanceAbuse <b>RISKPass </b></div><table class=\"hapiPropertyTable\"><tbody><tr><td>Date of birth</td><td><span>01 February 2004</span></td></tr></tbody></table></div>"
        },
        "extension": [
          {
            "url": "http://hl7.org/fhir/us/core/StructureDefinition/us-core-race",
            "extension": [
              {
                "url": "ombCategory",
                "valueCoding": {
                  "system": "urn:oid:2.16.840.1.113883.6.238",
                  "code": "1002-5",
                  "display": "American Indian or Alaska Native",
                  "userSelected": true
                }
              },
              {
                "url": "text",
                "valueString": "American Indian or Alaska Native"
              }
            ]
          },
          {
            "url": "http://hl7.org/fhir/us/core/StructureDefinition/us-core-ethnicity",
            "extension": [
              {
                "url": "ombCategory",
                "valueCoding": {
                  "system": "urn:oid:2.16.840.1.113883.6.238",
                  "code": "2135-2",
                  "display": "Hispanic or Latino",
                  "userSelected": true
                }
              },
              {
                "url": "text",
                "valueString": "Hispanic or Latino"
              }
            ]
          }
        ],
        "identifier": [
          {
            "type": {
              "coding": [
                {
                  "system": "http://terminology.hl7.org/CodeSystem/v2-0203",
                  "code": "MR"
                }
              ]
            },
            "system": "https://bonnie-fhir.healthit.gov/",
            "value": "63594c7a6aee9629c82981df"
          }
        ],
        "active": true,
        "name": [
          {
            "use": "usual",
            "family": "RiskPass",
            "given": [
              "Risk_SubstanceAbuse"
            ]
          }
        ],
        "gender": "female",
        "birthDate": "2004-02-01"
      },
      "request": {
        "method": "PUT",
        "url": "Patient/468b272c-ae69-4a0a-b57a-68db9af541f1"
      }
    },
    {
      "fullUrl": "https://madie.cms.gov/Observation/31ffe6fc-c9b2-4d44-a9dd-3416e9ebc0be",
      "resource": {
        "resourceType": "Observation",
        "id": "31ffe6fc-c9b2-4d44-a9dd-3416e9ebc0be",
        "meta": {
          "profile": [
            "http://hl7.org/fhir/us/qicore/StructureDefinition/qicore-observation"
          ]
        },
        "status": "final",
        "category": [
          {
            "coding": [
              {
                "system": "http://terminology.hl7.org/CodeSystem/observation-category",
                "code": "exam",
                "display": "exam",
                "userSelected": true
              }
            ]
          }
        ],
        "code": {
          "coding": [
            {
              "system": "http://loinc.org",
              "code": "93857-1"
            }
          ]
        },
        "subject": {
          "reference": "Patient/468b272c-ae69-4a0a-b57a-68db9af541f1"
        },
        "effectiveDateTime": "2024-02-01T08:00:00.000+00:00",
        "valueDateTime": "2024-02-01T08:00:00+00:00"
      },
      "request": {
        "method": "PUT",
        "url": "Observation/31ffe6fc-c9b2-4d44-a9dd-3416e9ebc0be"
      }
    },
    {
      "fullUrl": "https://madie.cms.gov/Observation/a459f3ba-5e8d-44c1-8dbf-01de6aeb4eb1",
      "resource": {
        "resourceType": "Observation",
        "id": "a459f3ba-5e8d-44c1-8dbf-01de6aeb4eb1",
        "meta": {
          "profile": [
            "http://hl7.org/fhir/us/qicore/StructureDefinition/qicore-observation"
          ]
        },
        "status": "final",
        "category": [
          {
            "coding": [
              {
                "system": "http://terminology.hl7.org/CodeSystem/observation-category",
                "code": "exam",
                "display": "exam",
                "userSelected": true
              }
            ]
          }
        ],
        "code": {
          "coding": [
            {
              "system": "http://loinc.org",
              "code": "11778-8"
            }
          ]
        },
        "subject": {
          "reference": "Patient/468b272c-ae69-4a0a-b57a-68db9af541f1"
        },
        "effectiveDateTime": "2024-02-01T08:00:00.000+00:00",
        "valueDateTime": "2024-02-01T00:00:00.000+00:00"
      },
      "request": {
        "method": "PUT",
        "url": "Observation/a459f3ba-5e8d-44c1-8dbf-01de6aeb4eb1"
      }
    },
    {
      "fullUrl": "https://madie.cms.gov/Encounter/32b0e4bc-d349-47d8-94bd-5e961c747c44",
      "resource": {
        "resourceType": "Encounter",
        "id": "32b0e4bc-d349-47d8-94bd-5e961c747c44",
        "meta": {
          "profile": [
            "http://hl7.org/fhir/us/qicore/StructureDefinition/qicore-encounter"
          ]
        },
        "status": "finished",
        "class": {
          "system": "http://terminology.hl7.org/CodeSystem/v3-ActCode",
          "code": "IMP",
          "display": "inpatient encounter"
        },
        "type": [
          {
            "coding": [
              {
                "system": "http://snomed.info/sct",
                "code": "183452005"
              }
            ]
          }
        ],
        "subject": {
          "reference": "Patient/468b272c-ae69-4a0a-b57a-68db9af541f1"
        },
        "period": {
          "start": "2024-02-01T08:00:00.000Z",
          "end": "2024-02-05T08:15:00.000Z"
        },
        "diagnosis": [
          {
            "extension": [
              {
                "url": "http://hl7.org/fhir/us/qicore/StructureDefinition/qicore-encounter-diagnosisPresentOnAdmission",
                "valueCodeableConcept": {
                  "coding": [
                    {
                      "system": "https://www.cms.gov/Medicare/Medicare-Fee-for-Service-Payment/HospitalAcqCond/Coding",
                      "code": "Y"
                    }
                  ]
                }
              }
            ],
            "condition": {
              "reference": "Condition/969b0717-9de5-46b9-b155-3aca2af6e508"
            }
          },
          {
            "extension": [
              {
                "url": "http://hl7.org/fhir/us/qicore/StructureDefinition/qicore-encounter-diagnosisPresentOnAdmission",
                "valueCodeableConcept": {
                  "coding": [
                    {
                      "system": "https://www.cms.gov/Medicare/Medicare-Fee-for-Service-Payment/HospitalAcqCond/Coding",
                      "code": "N"
                    }
                  ]
                }
              }
            ],
            "condition": {
              "reference": "Condition/b3484be5-ac5b-4b8f-9ec2-523aac5eb1a4"
            }
          }
        ]
      },
      "request": {
        "method": "PUT",
        "url": "Encounter/32b0e4bc-d349-47d8-94bd-5e961c747c44"
      }
    },
    {
      "fullUrl": "https://madie.cms.gov/Procedure/caac180e-6cab-466a-a40c-85d25ac5093e",
      "resource": {
        "resourceType": "Procedure",
        "id": "caac180e-6cab-466a-a40c-85d25ac5093e",
        "meta": {
          "profile": [
            "http://hl7.org/fhir/us/qicore/StructureDefinition/qicore-procedure"
          ]
        },
        "extension": [
          {
            "url": "http://hl7.org/fhir/us/qicore/StructureDefinition/qicore-recorded",
            "valueDateTime": "2013-04-05T09:35:00-04:00"
          }
        ],
        "status": "completed",
        "code": {
          "coding": [
            {
              "system": "http://snomed.info/sct",
              "code": "10745001"
            }
          ]
        },
        "subject": {
          "reference": "Patient/468b272c-ae69-4a0a-b57a-68db9af541f1"
        },
        "performedDateTime": "2024-02-01T08:00:00.000+00:00"
      },
      "request": {
        "method": "PUT",
        "url": "Procedure/caac180e-6cab-466a-a40c-85d25ac5093e"
      }
    },
    {
      "fullUrl": "https://madie.cms.gov/Condition/b3484be5-ac5b-4b8f-9ec2-523aac5eb1a4",
      "resource": {
        "resourceType": "Condition",
        "id": "b3484be5-ac5b-4b8f-9ec2-523aac5eb1a4",
        "meta": {
          "profile": [
            "http://hl7.org/fhir/us/qicore/StructureDefinition/qicore-condition"
          ]
        },
        "category": [
          {
            "coding": [
              {
                "system": "http://terminology.hl7.org/CodeSystem/condition-category",
                "code": "encounter-diagnosis",
                "display": "Encounter Diagnosis"
              }
            ]
          }
        ],
        "code": {
          "coding": [
            {
              "system": "http://hl7.org/fhir/sid/icd-10-cm",
              "version": "2023",
              "code": "A32.7",
              "display": "Listerial sepsis",
              "userSelected": true
            }
          ]
        },
        "subject": {
          "reference": "Patient/468b272c-ae69-4a0a-b57a-68db9af541f1"
        },
        "recordedDate": "2024-10-26T08:00:00.000+00:00"
      },
      "request": {
        "method": "PUT",
        "url": "Condition/b3484be5-ac5b-4b8f-9ec2-523aac5eb1a4"
      }
    },
    {
      "fullUrl": "https://madie.cms.gov/Condition/969b0717-9de5-46b9-b155-3aca2af6e508",
      "resource": {
        "resourceType": "Condition",
        "id": "969b0717-9de5-46b9-b155-3aca2af6e508",
        "meta": {
          "profile": [
            "http://hl7.org/fhir/us/qicore/StructureDefinition/qicore-condition"
          ]
        },
        "category": [
          {
            "coding": [
              {
                "system": "http://terminology.hl7.org/CodeSystem/condition-category",
                "code": "encounter-diagnosis",
                "display": "Encounter Diagnosis"
              }
            ]
          }
        ],
        "code": {
          "coding": [
            {
              "system": "http://hl7.org/fhir/sid/icd-10-cm",
              "version": "2023",
              "code": "F10.10",
              "display": "Thyrotoxicosis",
              "userSelected": true
            }
          ]
        },
        "subject": {
          "reference": "Patient/468b272c-ae69-4a0a-b57a-68db9af541f1"
        },
        "recordedDate": "2024-10-26T08:00:00.000+00:00"
      },
      "request": {
        "method": "PUT",
        "url": "Condition/969b0717-9de5-46b9-b155-3aca2af6e508"
      }
    },
    {
      "fullUrl": "https://madie.cms.gov/MeasureReport/3f768463-afcf-4c79-8dab-e64577a3282d",
      "resource": {
        "resourceType": "MeasureReport",
        "id": "3f768463-afcf-4c79-8dab-e64577a3282d",
        "meta": {
          "profile": [
            "http://hl7.org/fhir/us/cqfmeasures/StructureDefinition/test-case-cqfm"
          ]
        },
        "contained": [
          {
            "resourceType": "Parameters",
            "id": "0c0ea028-8bae-4999-a641-69be1ce63044-parameters",
            "parameter": [
              {
                "name": "subject",
                "valueString": "468b272c-ae69-4a0a-b57a-68db9af541f1"
              }
            ]
          }
        ],
        "extension": [
          {
            "url": "http://hl7.org/fhir/us/cqfmeasures/StructureDefinition/cqfm-inputParameters",
            "valueReference": {
              "reference": "#0c0ea028-8bae-4999-a641-69be1ce63044-parameters"
            }
          },
          {
            "url": "http://hl7.org/fhir/us/cqfmeasures/StructureDefinition/cqfm-testCaseDescription",
            "valueMarkdown": "Risk variable of substance abuse.\n\n"
          }
        ],
        "modifierExtension": [
          {
            "url": "http://hl7.org/fhir/us/cqfmeasures/StructureDefinition/cqfm-isTestCase",
            "valueBoolean": true
          }
        ],
        "status": "complete",
        "type": "individual",
        "measure": "https://madie.cms.gov/Measure/SevereObstetricComplicationsFHIR",
        "period": {
          "start": "2024-01-01",
          "end": "2024-12-31"
        },
        "group": [
          {
            "population": [
              {
                "code": {
                  "coding": [
                    {
                      "system": "http://terminology.hl7.org/CodeSystem/measure-population",
                      "code": "initial-population",
                      "display": "Initial Population"
                    }
                  ]
                },
                "count": 1
              },
              {
                "code": {
                  "coding": [
                    {
                      "system": "http://terminology.hl7.org/CodeSystem/measure-population",
                      "code": "denominator",
                      "display": "Denominator"
                    }
                  ]
                },
                "count": 1
              },
              {
                "code": {
                  "coding": [
                    {
                      "system": "http://terminology.hl7.org/CodeSystem/measure-population",
                      "code": "denominator-exclusion",
                      "display": "Denominator Exclusion"
                    }
                  ]
                },
                "count": 0
              },
              {
                "code": {
                  "coding": [
                    {
                      "system": "http://terminology.hl7.org/CodeSystem/measure-population",
                      "code": "numerator",
                      "display": "Numerator"
                    }
                  ]
                },
                "count": 1
              }
            ]
          }
        ],
        "evaluatedResource": [
          {
            "reference": "Patient/468b272c-ae69-4a0a-b57a-68db9af541f1"
          },
          {
            "reference": "Observation/31ffe6fc-c9b2-4d44-a9dd-3416e9ebc0be"
          },
          {
            "reference": "Observation/a459f3ba-5e8d-44c1-8dbf-01de6aeb4eb1"
          },
          {
            "reference": "Encounter/32b0e4bc-d349-47d8-94bd-5e961c747c44"
          },
          {
            "reference": "Procedure/caac180e-6cab-466a-a40c-85d25ac5093e"
          },
          {
            "reference": "Condition/b3484be5-ac5b-4b8f-9ec2-523aac5eb1a4"
          },
          {
            "reference": "Condition/969b0717-9de5-46b9-b155-3aca2af6e508"
          }
        ]
      },
      "request": {
        "method": "PUT",
        "url": "MeasureReport/3f768463-afcf-4c79-8dab-e64577a3282d"
      }
    }
  ]
}