{
  "resourceType": "Bundle",
  "id": "63ec096bccb3770120fea0ad",
  "type": "transaction",
  "entry": [
    {
      "fullUrl": "https://madie.cms.gov/Patient/4877bec2-f526-474d-b9f0-04adf29ee473",
      "resource": {
        "resourceType": "Patient",
        "id": "4877bec2-f526-474d-b9f0-04adf29ee473",
        "meta": {
          "profile": [
            "http://hl7.org/fhir/us/qicore/StructureDefinition/qicore-patient"
          ]
        },
        "text": {
          "status": "generated",
          "div": "<div xmlns=\"http://www.w3.org/1999/xhtml\"><div class=\"hapiHeaderText\">NoResult <b>SODIUMFAIL </b></div><table class=\"hapiPropertyTable\"><tbody><tr><td>Identifier</td><td>eb360e3679224871964d5b3575a59ceb3c2f6260372fb1be3ea61ac84d2937cf</td></tr><tr><td>Date of birth</td><td><span>15 June 1956</span></td></tr></tbody></table></div>"
        },
        "extension": [
          {
            "url": "http://hl7.org/fhir/us/core/StructureDefinition/us-core-race",
            "extension": [
              {
                "url": "ombCategory",
                "valueCoding": {
                  "system": "urn:oid:2.16.840.1.113883.6.238",
                  "code": "1002-5",
                  "display": "American Indian or Alaska Native",
                  "userSelected": true
                }
              },
              {
                "url": "text",
                "valueString": "American Indian or Alaska Native"
              }
            ]
          },
          {
            "url": "http://hl7.org/fhir/us/core/StructureDefinition/us-core-ethnicity",
            "extension": [
              {
                "url": "ombCategory",
                "valueCoding": {
                  "system": "urn:oid:2.16.840.1.113883.6.238",
                  "code": "2186-5",
                  "display": "Not Hispanic or Latino",
                  "userSelected": true
                }
              },
              {
                "url": "text",
                "valueString": "Not Hispanic or Latino"
              }
            ]
          }
        ],
        "identifier": [
          {
            "type": {
              "coding": [
                {
                  "system": "http://terminology.hl7.org/CodeSystem/v2-0203",
                  "code": "MR"
                }
              ]
            },
            "system": "https://bonnie-fhir.healthit.gov/",
            "value": "63ec096bccb3770120fea0ad"
          }
        ],
        "active": true,
        "name": [
          {
            "use": "usual",
            "family": "PerformedOnAdmission",
            "given": [
              "OxygenSatPass"
            ]
          }
        ],
        "gender": "male",
        "birthDate": "1940-07-01"
      },
      "request": {
        "method": "PUT",
        "url": "Patient/4877bec2-f526-474d-b9f0-04adf29ee473"
      }
    },
    {
      "fullUrl": "https://madie.cms.gov/Encounter/984cc0f2-0e9a-4a41-ab4a-cb67526cd08d",
      "resource": {
        "resourceType": "Encounter",
        "id": "984cc0f2-0e9a-4a41-ab4a-cb67526cd08d",
        "meta": {
          "profile": [
            "http://hl7.org/fhir/us/qicore/StructureDefinition/qicore-encounter"
          ]
        },
        "status": "finished",
        "class": {
          "system": "http://terminology.hl7.org/CodeSystem/v3-ActCode",
          "code": "IMP",
          "display": "inpatient encounter",
          "userSelected": true
        },
        "type": [
          {
            "coding": [
              {
                "system": "http://snomed.info/sct",
                "code": "183452005"
              }
            ]
          }
        ],
        "subject": {
          "reference": "Patient/4877bec2-f526-474d-b9f0-04adf29ee473"
        },
        "period": {
          "start": "2025-07-01T12:01:00.000+00:00",
          "end": "2025-07-04T08:15:00.000+00:00"
        }
      },
      "request": {
        "method": "PUT",
        "url": "Encounter/984cc0f2-0e9a-4a41-ab4a-cb67526cd08d"
      }
    },
    {
      "fullUrl": "https://madie.cms.gov/Encounter/984cc0f2-0e9a-4a41-ab4a-cb67526cd08d1",
      "resource": {
        "resourceType": "Encounter",
        "id": "984cc0f2-0e9a-4a41-ab4a-cb67526cd08d1",
        "meta": {
          "profile": [
            "http://hl7.org/fhir/us/qicore/StructureDefinition/qicore-encounter"
          ]
        },
        "status": "finished",
        "class": {
          "system": "http://terminology.hl7.org/CodeSystem/v3-ActCode",
          "code": "IMP",
          "display": "inpatient encounter",
          "userSelected": true
        },
        "type": [
          {
            "coding": [
              {
                "system": "http://snomed.info/sct",
                "code": "183452005",
                "display": "Emergency hospital admission (procedure)"
              }
            ]
          }
        ],
        "subject": {
          "reference": "Patient/4877bec2-f526-474d-b9f0-04adf29ee473"
        },
        "period": {
          "start": "2025-12-31T12:01:00.000+00:00",
          "end": "2026-01-03T10:00:00.000+00:00"
        }
      },
      "request": {
        "method": "PUT",
        "url": "Encounter/984cc0f2-0e9a-4a41-ab4a-cb67526cd08d1"
      }
    },
    {
      "fullUrl": "https://madie.cms.gov/Encounter/984cc0f2-0e9a-4a41-ab4a-cb67526cd08d2",
      "resource": {
        "resourceType": "Encounter",
        "id": "984cc0f2-0e9a-4a41-ab4a-cb67526cd08d2",
        "meta": {
          "profile": [
            "http://hl7.org/fhir/us/qicore/StructureDefinition/qicore-encounter"
          ]
        },
        "status": "finished",
        "class": {
          "system": "http://terminology.hl7.org/CodeSystem/v3-ActCode",
          "code": "IMP",
          "display": "inpatient encounter",
          "userSelected": true
        },
        "type": [
          {
            "coding": [
              {
                "system": "http://snomed.info/sct",
                "code": "32485007",
                "display": "Hospital admission (procedure)"
              }
            ]
          }
        ],
        "subject": {
          "reference": "Patient/4877bec2-f526-474d-b9f0-04adf29ee473"
        },
        "period": {
          "start": "2026-01-04T08:00:00.000+00:00",
          "end": "2026-01-08T08:15:00.000+00:00"
        }
      },
      "request": {
        "method": "PUT",
        "url": "Encounter/984cc0f2-0e9a-4a41-ab4a-cb67526cd08d2"
      }
    },
    {
      "fullUrl": "https://madie.cms.gov/Observation/0efe6132-1a74-460b-96ae-afcb88061576",
      "resource": {
        "resourceType": "Observation",
        "id": "0efe6132-1a74-460b-96ae-afcb88061576",
        "meta": {
          "profile": [
            "http://hl7.org/fhir/us/qicore/StructureDefinition/qicore-observation"
          ]
        },
        "status": "final",
        "category": [
          {
            "coding": [
              {
                "system": "http://terminology.hl7.org/CodeSystem/observation-category",
                "code": "vital-signs",
                "display": "Vital Signs",
                "userSelected": true
              }
            ]
          }
        ],
        "code": {
          "coding": [
            {
              "system": "http://loinc.org",
              "code": "59408-5",
              "display": "Oxygen saturation in Arterial blood by Pulse oximetry"
            }
          ]
        },
        "subject": {
          "reference": "Patient/4877bec2-f526-474d-b9f0-04adf29ee473"
        },
        "effectiveDateTime": "2025-07-01T12:01:00.000+00:00",
        "valueQuantity": {
          "value": 98,
          "unit": "%",
          "system": "http://unitsofmeasure.org",
          "code": "%"
        }
      },
      "request": {
        "method": "PUT",
        "url": "Observation/0efe6132-1a74-460b-96ae-afcb88061576"
      }
    },
    {
      "fullUrl": "https://madie.cms.gov/Coverage/43a5bc82-9772-47de-b6d4-ce6869dea22e",
      "resource": {
        "resourceType": "Coverage",
        "id": "43a5bc82-9772-47de-b6d4-ce6869dea22e",
        "meta": {
          "profile": [
            "http://hl7.org/fhir/us/qicore/StructureDefinition/qicore-coverage"
          ]
        },
        "status": "active",
        "type": {
          "coding": [
            {
              "system": "https://nahdo.org/sopt",
              "version": "1.0.1",
              "code": "1",
              "display": "Medicare payer",
              "userSelected": true
            }
          ]
        },
        "beneficiary": {
          "reference": "Patient/4877bec2-f526-474d-b9f0-04adf29ee473"
        },
        "payor": [
          {
            "reference": "Organization/123456"
          }
        ]
      },
      "request": {
        "method": "PUT",
        "url": "Coverage/43a5bc82-9772-47de-b6d4-ce6869dea22e"
      }
    },
    {
      "fullUrl": "https://madie.cms.gov/Practitioner/2f251301-cd88-4d40-aee5-de9cc89ee220",
      "resource": {
        "resourceType": "Practitioner",
        "id": "2f251301-cd88-4d40-aee5-de9cc89ee220",
        "meta": {
          "profile": [
            "http://hl7.org/fhir/us/qicore/StructureDefinition/qicore-practitioner"
          ]
        },
        "identifier": [
          {
            "system": "http://hl7.org/fhir/sid/us-npi",
            "value": "123456"
          }
        ],
        "name": [
          {
            "family": "Evil",
            "prefix": [
              "Dr"
            ]
          }
        ]
      },
      "request": {
        "method": "PUT",
        "url": "Practitioner/2f251301-cd88-4d40-aee5-de9cc89ee220"
      }
    },
    {
      "fullUrl": "https://madie.cms.gov/MeasureReport/ecac011d-655f-44e1-b641-5945747c220d",
      "resource": {
        "resourceType": "MeasureReport",
        "id": "ecac011d-655f-44e1-b641-5945747c220d",
        "meta": {
          "profile": [
            "http://hl7.org/fhir/us/cqfmeasures/StructureDefinition/test-case-cqfm"
          ]
        },
        "contained": [
          {
            "resourceType": "Parameters",
            "id": "cfd78ef9-db80-488d-8ffb-3e55981b7cf4-parameters",
            "parameter": [
              {
                "name": "subject",
                "valueString": "4877bec2-f526-474d-b9f0-04adf29ee473"
              }
            ]
          }
        ],
        "extension": [
          {
            "url": "http://hl7.org/fhir/us/cqfmeasures/StructureDefinition/cqfm-inputParameters",
            "valueReference": {
              "reference": "#cfd78ef9-db80-488d-8ffb-3e55981b7cf4-parameters"
            }
          },
          {
            "url": "http://hl7.org/fhir/us/cqfmeasures/StructureDefinition/cqfm-testCaseDescription",
            "valueMarkdown": "Enc first day of MP (7/1), age 65 today, has Medicare, O2 sats performed on admission and 24 hours after admission, only the first one is included   "
          }
        ],
        "modifierExtension": [
          {
            "url": "http://hl7.org/fhir/us/cqfmeasures/StructureDefinition/cqfm-isTestCase",
            "valueBoolean": true
          }
        ],
        "status": "complete",
        "type": "individual",
        "measure": "https://madie.cms.gov/Measure/HybridHospitalWideMortalityFHIR",
        "period": {
          "start": "2025-07-01",
          "end": "2026-06-30"
        },
        "group": [
          {
            "population": [
              {
                "code": {
                  "coding": [
                    {
                      "system": "http://terminology.hl7.org/CodeSystem/measure-population",
                      "code": "initial-population",
                      "display": "Initial Population"
                    }
                  ]
                },
                "count": 3
              }
            ]
          }
        ],
        "evaluatedResource": [
          {
            "reference": "Patient/4877bec2-f526-474d-b9f0-04adf29ee473"
          },
          {
            "reference": "Encounter/984cc0f2-0e9a-4a41-ab4a-cb67526cd08d"
          },
          {
            "reference": "Encounter/984cc0f2-0e9a-4a41-ab4a-cb67526cd08d1"
          },
          {
            "reference": "Encounter/984cc0f2-0e9a-4a41-ab4a-cb67526cd08d2"
          },
          {
            "reference": "Observation/0efe6132-1a74-460b-96ae-afcb88061576"
          },
          {
            "reference": "Coverage/43a5bc82-9772-47de-b6d4-ce6869dea22e"
          },
          {
            "reference": "Practitioner/2f251301-cd88-4d40-aee5-de9cc89ee220"
          }
        ]
      },
      "request": {
        "method": "PUT",
        "url": "MeasureReport/ecac011d-655f-44e1-b641-5945747c220d"
      }
    }
  ]
}