{
  "resourceType": "Bundle",
  "id": "6356d03854e383debade759e",
  "type": "transaction",
  "entry": [
    {
      "fullUrl": "https://madie.cms.gov/Patient/fe74f45f-1173-4292-a68a-32dbe20d358f",
      "resource": {
        "resourceType": "Patient",
        "id": "fe74f45f-1173-4292-a68a-32dbe20d358f",
        "meta": {
          "profile": [
            "http://hl7.org/fhir/us/qicore/StructureDefinition/qicore-patient"
          ]
        },
        "text": {
          "status": "generated",
          "div": "<div xmlns=\"http://www.w3.org/1999/xhtml\"><div class=\"hapiHeaderText\">AssPrfDELRelvDt_EQIPStart <b>DENOMPASS </b></div><table class=\"hapiPropertyTable\"><tbody><tr><td>Date of birth</td><td><span>01 February 2004</span></td></tr></tbody></table></div>"
        },
        "extension": [
          {
            "url": "http://hl7.org/fhir/us/core/StructureDefinition/us-core-race",
            "extension": [
              {
                "url": "ombCategory",
                "valueCoding": {
                  "system": "urn:oid:2.16.840.1.113883.6.238",
                  "code": "1002-5",
                  "display": "American Indian or Alaska Native",
                  "userSelected": true
                }
              },
              {
                "url": "text",
                "valueString": "American Indian or Alaska Native"
              }
            ]
          },
          {
            "url": "http://hl7.org/fhir/us/core/StructureDefinition/us-core-ethnicity",
            "extension": [
              {
                "url": "ombCategory",
                "valueCoding": {
                  "system": "urn:oid:2.16.840.1.113883.6.238",
                  "code": "2135-2",
                  "display": "Hispanic or Latino",
                  "userSelected": true
                }
              },
              {
                "url": "text",
                "valueString": "Hispanic or Latino"
              }
            ]
          }
        ],
        "identifier": [
          {
            "type": {
              "coding": [
                {
                  "system": "http://terminology.hl7.org/CodeSystem/v2-0203",
                  "code": "MR"
                }
              ]
            },
            "system": "https://bonnie-fhir.healthit.gov/",
            "value": "6356d03854e383debade759e"
          }
        ],
        "active": true,
        "name": [
          {
            "use": "usual",
            "family": "DENEXCPass",
            "given": [
              "CovidDxCovidCond"
            ]
          }
        ],
        "gender": "female",
        "birthDate": "2004-02-01"
      },
      "request": {
        "method": "PUT",
        "url": "Patient/fe74f45f-1173-4292-a68a-32dbe20d358f"
      }
    },
    {
      "fullUrl": "https://madie.cms.gov/Observation/a73a6e2c-4b29-443a-b760-e872002105a4",
      "resource": {
        "resourceType": "Observation",
        "id": "a73a6e2c-4b29-443a-b760-e872002105a4",
        "meta": {
          "profile": [
            "http://hl7.org/fhir/us/qicore/StructureDefinition/qicore-observation"
          ]
        },
        "status": "final",
        "category": [
          {
            "coding": [
              {
                "system": "http://terminology.hl7.org/CodeSystem/observation-category",
                "code": "exam",
                "display": "exam",
                "userSelected": true
              }
            ]
          }
        ],
        "code": {
          "coding": [
            {
              "system": "http://loinc.org",
              "code": "93857-1"
            }
          ]
        },
        "subject": {
          "reference": "Patient/fe74f45f-1173-4292-a68a-32dbe20d358f"
        },
        "effectiveDateTime": "2024-02-01T08:00:00.000+00:00",
        "valueDateTime": "2024-02-01T08:00:00.000+00:00"
      },
      "request": {
        "method": "PUT",
        "url": "Observation/a73a6e2c-4b29-443a-b760-e872002105a4"
      }
    },
    {
      "fullUrl": "https://madie.cms.gov/Observation/e4ab6461-436b-4b0f-9dbd-f33fe5dabcb3",
      "resource": {
        "resourceType": "Observation",
        "id": "e4ab6461-436b-4b0f-9dbd-f33fe5dabcb3",
        "meta": {
          "profile": [
            "http://hl7.org/fhir/us/qicore/StructureDefinition/qicore-observation"
          ]
        },
        "status": "final",
        "category": [
          {
            "coding": [
              {
                "system": "http://terminology.hl7.org/CodeSystem/observation-category",
                "code": "exam",
                "display": "exam",
                "userSelected": true
              }
            ]
          }
        ],
        "code": {
          "coding": [
            {
              "system": "http://loinc.org",
              "code": "11778-8"
            }
          ]
        },
        "subject": {
          "reference": "Patient/fe74f45f-1173-4292-a68a-32dbe20d358f"
        },
        "effectiveDateTime": "2024-02-01T08:00:00.000+00:00",
        "valueDateTime": "2024-02-01T08:00:00.000+00:00"
      },
      "request": {
        "method": "PUT",
        "url": "Observation/e4ab6461-436b-4b0f-9dbd-f33fe5dabcb3"
      }
    },
    {
      "fullUrl": "https://madie.cms.gov/Encounter/20b6a549-2ed7-46d2-97f6-df6901224013",
      "resource": {
        "resourceType": "Encounter",
        "id": "20b6a549-2ed7-46d2-97f6-df6901224013",
        "meta": {
          "profile": [
            "http://hl7.org/fhir/us/qicore/StructureDefinition/qicore-encounter"
          ]
        },
        "status": "finished",
        "class": {
          "system": "http://terminology.hl7.org/CodeSystem/v3-ActCode",
          "code": "IMP",
          "display": "inpatient encounter"
        },
        "type": [
          {
            "coding": [
              {
                "system": "http://snomed.info/sct",
                "code": "183452005"
              }
            ]
          }
        ],
        "subject": {
          "reference": "Patient/fe74f45f-1173-4292-a68a-32dbe20d358f"
        },
        "period": {
          "start": "2024-02-01T08:00:00.000Z",
          "end": "2024-02-05T08:15:00.000Z"
        },
        "diagnosis": [
          {
            "condition": {
              "reference": "Condition/ac57247f-0f12-45e1-8955-90708e08906b"
            }
          },
          {
            "condition": {
              "reference": "Condition/cabb3b89-719d-4fad-aee4-81f44cfd68fa"
            }
          }
        ]
      },
      "request": {
        "method": "PUT",
        "url": "Encounter/20b6a549-2ed7-46d2-97f6-df6901224013"
      }
    },
    {
      "fullUrl": "https://madie.cms.gov/Procedure/ccf51125-b68d-45c0-aac0-055b9ead2648",
      "resource": {
        "resourceType": "Procedure",
        "id": "ccf51125-b68d-45c0-aac0-055b9ead2648",
        "meta": {
          "profile": [
            "http://hl7.org/fhir/us/qicore/StructureDefinition/qicore-procedure"
          ]
        },
        "extension": [
          {
            "url": "http://hl7.org/fhir/us/qicore/StructureDefinition/qicore-recorded",
            "valueDateTime": "2013-04-05T09:35:00-04:00"
          }
        ],
        "status": "completed",
        "code": {
          "coding": [
            {
              "system": "http://snomed.info/sct",
              "code": "10745001"
            }
          ]
        },
        "subject": {
          "reference": "Patient/fe74f45f-1173-4292-a68a-32dbe20d358f"
        },
        "performedPeriod": {
          "start": "2024-02-01T08:00:00.000Z",
          "end": "2024-02-05T08:15:00.000Z"
        }
      },
      "request": {
        "method": "PUT",
        "url": "Procedure/ccf51125-b68d-45c0-aac0-055b9ead2648"
      }
    },
    {
      "fullUrl": "https://madie.cms.gov/Condition/ac57247f-0f12-45e1-8955-90708e08906b",
      "resource": {
        "resourceType": "Condition",
        "id": "ac57247f-0f12-45e1-8955-90708e08906b",
        "meta": {
          "profile": [
            "http://hl7.org/fhir/us/qicore/StructureDefinition/qicore-condition"
          ]
        },
        "category": [
          {
            "coding": [
              {
                "system": "http://terminology.hl7.org/CodeSystem/condition-category",
                "code": "encounter-diagnosis",
                "display": "Encounter Diagnosis"
              }
            ]
          }
        ],
        "code": {
          "coding": [
            {
              "system": "http://snomed.info/sct",
              "version": "2022-09",
              "code": "840539006",
              "display": "Disease caused by severe acute respiratory syndrome coronavirus 2 (disorder)",
              "userSelected": true
            }
          ]
        },
        "subject": {
          "reference": "Patient/fe74f45f-1173-4292-a68a-32dbe20d358f"
        }
      },
      "request": {
        "method": "PUT",
        "url": "Condition/ac57247f-0f12-45e1-8955-90708e08906b"
      }
    },
    {
      "fullUrl": "https://madie.cms.gov/Condition/cabb3b89-719d-4fad-aee4-81f44cfd68fa",
      "resource": {
        "resourceType": "Condition",
        "id": "cabb3b89-719d-4fad-aee4-81f44cfd68fa",
        "meta": {
          "profile": [
            "http://hl7.org/fhir/us/qicore/StructureDefinition/qicore-condition"
          ]
        },
        "category": [
          {
            "coding": [
              {
                "system": "http://terminology.hl7.org/CodeSystem/condition-category",
                "code": "encounter-diagnosis",
                "display": "Encounter Diagnosis"
              }
            ]
          }
        ],
        "code": {
          "coding": [
            {
              "system": "http://snomed.info/sct",
              "version": "2022-09",
              "code": "1119302008",
              "display": "Acute disease caused by severe acute respiratory syndrome coronavirus 2 (disorder)",
              "userSelected": true
            }
          ]
        },
        "subject": {
          "reference": "Patient/fe74f45f-1173-4292-a68a-32dbe20d358f"
        },
        "recordedDate": "2024-10-24T08:00:00.000+00:00"
      },
      "request": {
        "method": "PUT",
        "url": "Condition/cabb3b89-719d-4fad-aee4-81f44cfd68fa"
      }
    },
    {
      "fullUrl": "https://madie.cms.gov/Coverage/aaea64fb-3dbd-40c4-abf8-a290860bcc1b",
      "resource": {
        "resourceType": "Coverage",
        "id": "aaea64fb-3dbd-40c4-abf8-a290860bcc1b",
        "meta": {
          "profile": [
            "http://hl7.org/fhir/us/qicore/StructureDefinition/qicore-coverage"
          ]
        },
        "status": "active",
        "beneficiary": {
          "reference": "Patient/fe74f45f-1173-4292-a68a-32dbe20d358f"
        },
        "payor": [
          {
            "reference": "Organization/ed0d6356-24a3-4e36-abc6-04884dbda0e1"
          }
        ]
      },
      "request": {
        "method": "PUT",
        "url": "Coverage/aaea64fb-3dbd-40c4-abf8-a290860bcc1b"
      }
    },
    {
      "fullUrl": "https://madie.cms.gov/Organization/ed0d6356-24a3-4e36-abc6-04884dbda0e1",
      "resource": {
        "resourceType": "Organization",
        "id": "ed0d6356-24a3-4e36-abc6-04884dbda0e1",
        "meta": {
          "profile": [
            "http://hl7.org/fhir/us/qicore/StructureDefinition/qicore-organization"
          ]
        },
        "identifier": [
          {
            "use": "temp",
            "system": "urn:oid:2.16.840.1.113883.4.4",
            "value": "21-3259825"
          }
        ],
        "active": true,
        "type": [
          {
            "coding": [
              {
                "system": "http://terminology.hl7.org/CodeSystem/organization-type",
                "code": "pay",
                "display": "Payer"
              }
            ]
          }
        ],
        "name": "Blue Cross Blue Shield of Texas",
        "telecom": [
          {
            "system": "phone",
            "value": "(+1) 972-766-6900"
          }
        ],
        "address": [
          {
            "use": "billing",
            "type": "postal",
            "line": [
              "P.O. Box 660044"
            ],
            "city": "Dallas",
            "state": "TX",
            "postalCode": "75266-0044",
            "country": "USA"
          }
        ]
      },
      "request": {
        "method": "PUT",
        "url": "Organization/ed0d6356-24a3-4e36-abc6-04884dbda0e1"
      }
    },
    {
      "fullUrl": "https://madie.cms.gov/Practitioner/c8cbaf8f-87ff-4d01-8c44-ea6bb1e05325",
      "resource": {
        "resourceType": "Practitioner",
        "id": "c8cbaf8f-87ff-4d01-8c44-ea6bb1e05325",
        "identifier": [
          {
            "system": "http://hl7.org/fhir/sid/us-npi",
            "value": "123456"
          }
        ],
        "name": [
          {
            "family": "Evil",
            "prefix": [
              "Dr"
            ]
          }
        ]
      },
      "request": {
        "method": "PUT",
        "url": "Practitioner/c8cbaf8f-87ff-4d01-8c44-ea6bb1e05325"
      }
    },
    {
      "fullUrl": "https://madie.cms.gov/MeasureReport/d4c3c2d1-f380-4ed7-baa7-11a2f2e9cdb4",
      "resource": {
        "resourceType": "MeasureReport",
        "id": "d4c3c2d1-f380-4ed7-baa7-11a2f2e9cdb4",
        "meta": {
          "profile": [
            "http://hl7.org/fhir/us/cqfmeasures/StructureDefinition/test-case-cqfm"
          ]
        },
        "contained": [
          {
            "resourceType": "Parameters",
            "id": "97411cd8-27c2-4e3d-b7ac-f9d72e4f7d55-parameters",
            "parameter": [
              {
                "name": "subject",
                "valueString": "fe74f45f-1173-4292-a68a-32dbe20d358f"
              }
            ]
          }
        ],
        "extension": [
          {
            "url": "http://hl7.org/fhir/us/cqfmeasures/StructureDefinition/cqfm-inputParameters",
            "valueReference": {
              "reference": "#97411cd8-27c2-4e3d-b7ac-f9d72e4f7d55-parameters"
            }
          },
          {
            "url": "http://hl7.org/fhir/us/cqfmeasures/StructureDefinition/cqfm-testCaseDescription",
            "valueMarkdown": "Patient with confirmed COVID diagnosis and COVID related respiratory condition \n"
          }
        ],
        "modifierExtension": [
          {
            "url": "http://hl7.org/fhir/us/cqfmeasures/StructureDefinition/cqfm-isTestCase",
            "valueBoolean": true
          }
        ],
        "status": "complete",
        "type": "individual",
        "measure": "https://madie.cms.gov/Measure/SevereObstetricComplicationsFHIR",
        "period": {
          "start": "2024-01-01",
          "end": "2024-12-31"
        },
        "group": [
          {
            "population": [
              {
                "code": {
                  "coding": [
                    {
                      "system": "http://terminology.hl7.org/CodeSystem/measure-population",
                      "code": "initial-population",
                      "display": "Initial Population"
                    }
                  ]
                },
                "count": 1
              },
              {
                "code": {
                  "coding": [
                    {
                      "system": "http://terminology.hl7.org/CodeSystem/measure-population",
                      "code": "denominator",
                      "display": "Denominator"
                    }
                  ]
                },
                "count": 1
              },
              {
                "code": {
                  "coding": [
                    {
                      "system": "http://terminology.hl7.org/CodeSystem/measure-population",
                      "code": "denominator-exclusion",
                      "display": "Denominator Exclusion"
                    }
                  ]
                },
                "count": 1
              },
              {
                "code": {
                  "coding": [
                    {
                      "system": "http://terminology.hl7.org/CodeSystem/measure-population",
                      "code": "numerator",
                      "display": "Numerator"
                    }
                  ]
                },
                "count": 0
              }
            ]
          }
        ],
        "evaluatedResource": [
          {
            "reference": "Patient/fe74f45f-1173-4292-a68a-32dbe20d358f"
          },
          {
            "reference": "Observation/a73a6e2c-4b29-443a-b760-e872002105a4"
          },
          {
            "reference": "Observation/e4ab6461-436b-4b0f-9dbd-f33fe5dabcb3"
          },
          {
            "reference": "Encounter/20b6a549-2ed7-46d2-97f6-df6901224013"
          },
          {
            "reference": "Procedure/ccf51125-b68d-45c0-aac0-055b9ead2648"
          },
          {
            "reference": "Condition/ac57247f-0f12-45e1-8955-90708e08906b"
          },
          {
            "reference": "Condition/cabb3b89-719d-4fad-aee4-81f44cfd68fa"
          },
          {
            "reference": "Coverage/aaea64fb-3dbd-40c4-abf8-a290860bcc1b"
          },
          {
            "reference": "Organization/ed0d6356-24a3-4e36-abc6-04884dbda0e1"
          },
          {
            "reference": "Practitioner/c8cbaf8f-87ff-4d01-8c44-ea6bb1e05325"
          }
        ]
      },
      "request": {
        "method": "PUT",
        "url": "MeasureReport/d4c3c2d1-f380-4ed7-baa7-11a2f2e9cdb4"
      }
    }
  ]
}