{
  "resourceType": "Bundle",
  "id": "633b3f9e0968f80122503cbb",
  "type": "transaction",
  "entry": [
    {
      "fullUrl": "https://madie.cms.gov/Patient/4f7fc5c4-c13d-4b43-9482-c58909e3d596",
      "resource": {
        "resourceType": "Patient",
        "id": "4f7fc5c4-c13d-4b43-9482-c58909e3d596",
        "meta": {
          "profile": [
            "http://hl7.org/fhir/us/qicore/StructureDefinition/qicore-patient"
          ]
        },
        "text": {
          "status": "generated",
          "div": "<div xmlns=\"http://www.w3.org/1999/xhtml\"><div class=\"hapiHeaderText\">Age8OnDayOfEncStart <b>IPPASS </b></div><table class=\"hapiPropertyTable\"><tbody><tr><td>Date of birth</td><td><span>01 February 2004</span></td></tr></tbody></table></div>"
        },
        "extension": [
          {
            "url": "http://hl7.org/fhir/us/core/StructureDefinition/us-core-race",
            "extension": [
              {
                "url": "ombCategory",
                "valueCoding": {
                  "system": "urn:oid:2.16.840.1.113883.6.238",
                  "code": "1002-5",
                  "display": "American Indian or Alaska Native",
                  "userSelected": true
                }
              },
              {
                "url": "text",
                "valueString": "American Indian or Alaska Native"
              }
            ]
          },
          {
            "url": "http://hl7.org/fhir/us/core/StructureDefinition/us-core-ethnicity",
            "extension": [
              {
                "url": "ombCategory",
                "valueCoding": {
                  "system": "urn:oid:2.16.840.1.113883.6.238",
                  "code": "2135-2",
                  "display": "Hispanic or Latino",
                  "userSelected": true
                }
              },
              {
                "url": "text",
                "valueString": "Hispanic or Latino"
              }
            ]
          }
        ],
        "identifier": [
          {
            "type": {
              "coding": [
                {
                  "system": "http://terminology.hl7.org/CodeSystem/v2-0203",
                  "code": "MR"
                }
              ]
            },
            "system": "https://bonnie-fhir.healthit.gov/",
            "value": "633b3f9e0968f80122503cbb"
          }
        ],
        "active": true,
        "name": [
          {
            "use": "usual",
            "family": "IPPass",
            "given": [
              "Age8OnDayOfEncStart"
            ]
          }
        ],
        "gender": "male",
        "birthDate": "2016-02-01"
      },
      "request": {
        "method": "PUT",
        "url": "Patient/4f7fc5c4-c13d-4b43-9482-c58909e3d596"
      }
    },
    {
      "fullUrl": "https://madie.cms.gov/Encounter/814ad0cb-d235-4d67-86d4-eb6c8d937f5c",
      "resource": {
        "resourceType": "Encounter",
        "id": "814ad0cb-d235-4d67-86d4-eb6c8d937f5c",
        "meta": {
          "profile": [
            "http://hl7.org/fhir/us/qicore/StructureDefinition/qicore-encounter"
          ]
        },
        "status": "finished",
        "class": {
          "system": "http://terminology.hl7.org/CodeSystem/v3-ActCode",
          "code": "IMP",
          "display": "inpatient encounter"
        },
        "type": [
          {
            "coding": [
              {
                "system": "http://snomed.info/sct",
                "code": "183452005"
              }
            ]
          }
        ],
        "subject": {
          "reference": "Patient/4f7fc5c4-c13d-4b43-9482-c58909e3d596"
        },
        "period": {
          "start": "2024-02-01T08:00:00.000Z",
          "end": "2024-02-05T08:15:00.000Z"
        },
        "diagnosis": [
          {
            "condition": {
              "reference": "Condition/Condition-2"
            },
            "use": {
              "coding": [
                {
                  "system": "http://snomed.info/sct",
                  "code": "169826009",
                  "display": "Delivery of Singleton"
                }
              ]
            }
          }
        ]
      },
      "request": {
        "method": "PUT",
        "url": "Encounter/814ad0cb-d235-4d67-86d4-eb6c8d937f5c"
      }
    },
    {
      "fullUrl": "https://madie.cms.gov/Procedure/475ff663-5e8e-495b-84bd-a32869410c16",
      "resource": {
        "resourceType": "Procedure",
        "id": "475ff663-5e8e-495b-84bd-a32869410c16",
        "meta": {
          "profile": [
            "http://hl7.org/fhir/us/qicore/StructureDefinition/qicore-procedure"
          ]
        },
        "extension": [
          {
            "url": "http://hl7.org/fhir/us/qicore/StructureDefinition/qicore-recorded",
            "valueDateTime": "2013-04-05T09:35:00-04:00"
          }
        ],
        "status": "completed",
        "code": {
          "coding": [
            {
              "system": "http://snomed.info/sct",
              "version": "2022-09",
              "code": "10745001",
              "display": "Delivery of transverse presentation (procedure)",
              "userSelected": true
            }
          ]
        },
        "subject": {
          "reference": "Patient/4f7fc5c4-c13d-4b43-9482-c58909e3d596"
        },
        "performedPeriod": {
          "start": "2024-02-01T08:00:00.000Z",
          "end": "2024-02-05T08:15:00.000Z"
        }
      },
      "request": {
        "method": "PUT",
        "url": "Procedure/475ff663-5e8e-495b-84bd-a32869410c16"
      }
    },
    {
      "fullUrl": "https://madie.cms.gov/Coverage/a07a6818-30f2-438b-8944-1b0308365919",
      "resource": {
        "resourceType": "Coverage",
        "id": "a07a6818-30f2-438b-8944-1b0308365919",
        "meta": {
          "profile": [
            "http://hl7.org/fhir/us/qicore/StructureDefinition/qicore-coverage"
          ]
        },
        "status": "active",
        "beneficiary": {
          "reference": "Patient/4f7fc5c4-c13d-4b43-9482-c58909e3d596"
        },
        "payor": [
          {
            "reference": "Organization/96175a2b-3c11-48a7-bf03-bc1690048559"
          }
        ]
      },
      "request": {
        "method": "PUT",
        "url": "Coverage/a07a6818-30f2-438b-8944-1b0308365919"
      }
    },
    {
      "fullUrl": "https://madie.cms.gov/Organization/96175a2b-3c11-48a7-bf03-bc1690048559",
      "resource": {
        "resourceType": "Organization",
        "id": "96175a2b-3c11-48a7-bf03-bc1690048559",
        "meta": {
          "profile": [
            "http://hl7.org/fhir/us/qicore/StructureDefinition/qicore-organization"
          ]
        },
        "identifier": [
          {
            "use": "temp",
            "system": "urn:oid:2.16.840.1.113883.4.4",
            "value": "21-3259825"
          }
        ],
        "active": true,
        "type": [
          {
            "coding": [
              {
                "system": "http://terminology.hl7.org/CodeSystem/organization-type",
                "code": "pay",
                "display": "Payer"
              }
            ]
          }
        ],
        "name": "Blue Cross Blue Shield of Texas",
        "telecom": [
          {
            "system": "phone",
            "value": "(+1) 972-766-6900"
          }
        ],
        "address": [
          {
            "use": "billing",
            "type": "postal",
            "line": [
              "P.O. Box 660044"
            ],
            "city": "Dallas",
            "state": "TX",
            "postalCode": "75266-0044",
            "country": "USA"
          }
        ]
      },
      "request": {
        "method": "PUT",
        "url": "Organization/96175a2b-3c11-48a7-bf03-bc1690048559"
      }
    },
    {
      "fullUrl": "https://madie.cms.gov/Practitioner/51b01885-2aeb-4d11-bc10-791cb672130b",
      "resource": {
        "resourceType": "Practitioner",
        "id": "51b01885-2aeb-4d11-bc10-791cb672130b",
        "identifier": [
          {
            "system": "http://hl7.org/fhir/sid/us-npi",
            "value": "123456"
          }
        ],
        "name": [
          {
            "family": "Evil",
            "prefix": [
              "Dr"
            ]
          }
        ]
      },
      "request": {
        "method": "PUT",
        "url": "Practitioner/51b01885-2aeb-4d11-bc10-791cb672130b"
      }
    },
    {
      "fullUrl": "https://madie.cms.gov/MeasureReport/232b5ee4-bdfa-4503-9acc-fc1ae024a42d",
      "resource": {
        "resourceType": "MeasureReport",
        "id": "232b5ee4-bdfa-4503-9acc-fc1ae024a42d",
        "meta": {
          "profile": [
            "http://hl7.org/fhir/us/cqfmeasures/StructureDefinition/test-case-cqfm"
          ]
        },
        "contained": [
          {
            "resourceType": "Parameters",
            "id": "9fe7d30c-c307-4299-9d73-d311d832624a-parameters",
            "parameter": [
              {
                "name": "subject",
                "valueString": "4f7fc5c4-c13d-4b43-9482-c58909e3d596"
              }
            ]
          }
        ],
        "extension": [
          {
            "url": "http://hl7.org/fhir/us/cqfmeasures/StructureDefinition/cqfm-inputParameters",
            "valueReference": {
              "reference": "#9fe7d30c-c307-4299-9d73-d311d832624a-parameters"
            }
          },
          {
            "url": "http://hl7.org/fhir/us/cqfmeasures/StructureDefinition/cqfm-testCaseDescription",
            "valueMarkdown": "Sex=male, will still pass measure as sex is not qualified in the measure"
          }
        ],
        "modifierExtension": [
          {
            "url": "http://hl7.org/fhir/us/cqfmeasures/StructureDefinition/cqfm-isTestCase",
            "valueBoolean": true
          }
        ],
        "status": "complete",
        "type": "individual",
        "measure": "https://madie.cms.gov/Measure/SevereObstetricComplicationsFHIR",
        "period": {
          "start": "2024-01-01",
          "end": "2024-12-31"
        },
        "group": [
          {
            "population": [
              {
                "code": {
                  "coding": [
                    {
                      "system": "http://terminology.hl7.org/CodeSystem/measure-population",
                      "code": "initial-population",
                      "display": "Initial Population"
                    }
                  ]
                },
                "count": 1
              },
              {
                "code": {
                  "coding": [
                    {
                      "system": "http://terminology.hl7.org/CodeSystem/measure-population",
                      "code": "denominator",
                      "display": "Denominator"
                    }
                  ]
                },
                "count": 0
              },
              {
                "code": {
                  "coding": [
                    {
                      "system": "http://terminology.hl7.org/CodeSystem/measure-population",
                      "code": "denominator-exclusion",
                      "display": "Denominator Exclusion"
                    }
                  ]
                },
                "count": 0
              },
              {
                "code": {
                  "coding": [
                    {
                      "system": "http://terminology.hl7.org/CodeSystem/measure-population",
                      "code": "numerator",
                      "display": "Numerator"
                    }
                  ]
                },
                "count": 0
              }
            ]
          }
        ],
        "evaluatedResource": [
          {
            "reference": "Patient/4f7fc5c4-c13d-4b43-9482-c58909e3d596"
          },
          {
            "reference": "Encounter/814ad0cb-d235-4d67-86d4-eb6c8d937f5c"
          },
          {
            "reference": "Procedure/475ff663-5e8e-495b-84bd-a32869410c16"
          },
          {
            "reference": "Coverage/a07a6818-30f2-438b-8944-1b0308365919"
          },
          {
            "reference": "Organization/96175a2b-3c11-48a7-bf03-bc1690048559"
          },
          {
            "reference": "Practitioner/51b01885-2aeb-4d11-bc10-791cb672130b"
          }
        ]
      },
      "request": {
        "method": "PUT",
        "url": "MeasureReport/232b5ee4-bdfa-4503-9acc-fc1ae024a42d"
      }
    }
  ]
}