{
  "resourceType": "Bundle",
  "id": "6356d43254e383debade75a4",
  "type": "transaction",
  "entry": [
    {
      "fullUrl": "https://madie.cms.gov/Patient/47ad2628-bec3-4c53-b106-adaceecc60ee",
      "resource": {
        "resourceType": "Patient",
        "id": "47ad2628-bec3-4c53-b106-adaceecc60ee",
        "meta": {
          "profile": [
            "http://hl7.org/fhir/us/qicore/StructureDefinition/qicore-patient"
          ]
        },
        "text": {
          "status": "generated",
          "div": "<div xmlns=\"http://www.w3.org/1999/xhtml\"><div class=\"hapiHeaderText\">AssPrfDELRelvDt_EQIPStart <b>DENOMPASS </b></div><table class=\"hapiPropertyTable\"><tbody><tr><td>Date of birth</td><td><span>01 February 2004</span></td></tr></tbody></table></div>"
        },
        "extension": [
          {
            "url": "http://hl7.org/fhir/us/core/StructureDefinition/us-core-race",
            "extension": [
              {
                "url": "ombCategory",
                "valueCoding": {
                  "system": "urn:oid:2.16.840.1.113883.6.238",
                  "code": "1002-5",
                  "display": "American Indian or Alaska Native",
                  "userSelected": true
                }
              },
              {
                "url": "text",
                "valueString": "American Indian or Alaska Native"
              }
            ]
          },
          {
            "url": "http://hl7.org/fhir/us/core/StructureDefinition/us-core-ethnicity",
            "extension": [
              {
                "url": "ombCategory",
                "valueCoding": {
                  "system": "urn:oid:2.16.840.1.113883.6.238",
                  "code": "2135-2",
                  "display": "Hispanic or Latino",
                  "userSelected": true
                }
              },
              {
                "url": "text",
                "valueString": "Hispanic or Latino"
              }
            ]
          }
        ],
        "identifier": [
          {
            "type": {
              "coding": [
                {
                  "system": "http://terminology.hl7.org/CodeSystem/v2-0203",
                  "code": "MR"
                }
              ]
            },
            "system": "https://bonnie-fhir.healthit.gov/",
            "value": "6356d43254e383debade75a4"
          }
        ],
        "active": true,
        "name": [
          {
            "use": "usual",
            "family": "DENEXCFail",
            "given": [
              "CovidDxCovidProcedureStrts1159pmDayB4EncStrts"
            ]
          }
        ],
        "gender": "female",
        "birthDate": "2004-02-01"
      },
      "request": {
        "method": "PUT",
        "url": "Patient/47ad2628-bec3-4c53-b106-adaceecc60ee"
      }
    },
    {
      "fullUrl": "https://madie.cms.gov/Observation/ce7a6861-eee4-449f-89b6-9fe5aa6d8ff6",
      "resource": {
        "resourceType": "Observation",
        "id": "ce7a6861-eee4-449f-89b6-9fe5aa6d8ff6",
        "meta": {
          "profile": [
            "http://hl7.org/fhir/us/qicore/StructureDefinition/qicore-observation"
          ]
        },
        "status": "final",
        "category": [
          {
            "coding": [
              {
                "system": "http://terminology.hl7.org/CodeSystem/observation-category",
                "code": "exam",
                "display": "exam",
                "userSelected": true
              }
            ]
          }
        ],
        "code": {
          "coding": [
            {
              "system": "http://loinc.org",
              "code": "93857-1"
            }
          ]
        },
        "subject": {
          "reference": "Patient/47ad2628-bec3-4c53-b106-adaceecc60ee"
        },
        "effectiveDateTime": "2024-02-01T08:00:00.000+00:00",
        "valueDateTime": "2024-02-01T08:00:00.000+00:00"
      },
      "request": {
        "method": "PUT",
        "url": "Observation/ce7a6861-eee4-449f-89b6-9fe5aa6d8ff6"
      }
    },
    {
      "fullUrl": "https://madie.cms.gov/Observation/e0ce7afb-9867-406e-bcb5-f57126c52316",
      "resource": {
        "resourceType": "Observation",
        "id": "e0ce7afb-9867-406e-bcb5-f57126c52316",
        "meta": {
          "profile": [
            "http://hl7.org/fhir/us/qicore/StructureDefinition/qicore-observation"
          ]
        },
        "status": "final",
        "category": [
          {
            "coding": [
              {
                "system": "http://terminology.hl7.org/CodeSystem/observation-category",
                "code": "exam",
                "display": "exam",
                "userSelected": true
              }
            ]
          }
        ],
        "code": {
          "coding": [
            {
              "system": "http://loinc.org",
              "code": "11778-8"
            }
          ]
        },
        "subject": {
          "reference": "Patient/47ad2628-bec3-4c53-b106-adaceecc60ee"
        },
        "effectiveDateTime": "2024-02-01T08:00:00.000+00:00",
        "valueDateTime": "2024-02-01T08:00:00.000+00:00"
      },
      "request": {
        "method": "PUT",
        "url": "Observation/e0ce7afb-9867-406e-bcb5-f57126c52316"
      }
    },
    {
      "fullUrl": "https://madie.cms.gov/Encounter/ec48176e-8df0-4f04-af16-9639db3652c5",
      "resource": {
        "resourceType": "Encounter",
        "id": "ec48176e-8df0-4f04-af16-9639db3652c5",
        "meta": {
          "profile": [
            "http://hl7.org/fhir/us/qicore/StructureDefinition/qicore-encounter"
          ]
        },
        "status": "finished",
        "class": {
          "system": "http://terminology.hl7.org/CodeSystem/v3-ActCode",
          "code": "IMP",
          "display": "inpatient encounter"
        },
        "type": [
          {
            "coding": [
              {
                "system": "http://snomed.info/sct",
                "code": "183452005"
              }
            ]
          }
        ],
        "subject": {
          "reference": "Patient/47ad2628-bec3-4c53-b106-adaceecc60ee"
        },
        "period": {
          "start": "2024-02-01T08:00:00.000Z",
          "end": "2024-02-05T08:15:00.000Z"
        },
        "diagnosis": [
          {
            "condition": {
              "reference": "Condition/23779862-b765-4ebd-9fb4-62f4aa19eae3"
            }
          }
        ]
      },
      "request": {
        "method": "PUT",
        "url": "Encounter/ec48176e-8df0-4f04-af16-9639db3652c5"
      }
    },
    {
      "fullUrl": "https://madie.cms.gov/Procedure/06678b34-72e7-4173-a040-be2054bb3578",
      "resource": {
        "resourceType": "Procedure",
        "id": "06678b34-72e7-4173-a040-be2054bb3578",
        "meta": {
          "profile": [
            "http://hl7.org/fhir/us/qicore/StructureDefinition/qicore-procedure"
          ]
        },
        "extension": [
          {
            "url": "http://hl7.org/fhir/us/qicore/StructureDefinition/qicore-recorded",
            "valueDateTime": "2013-04-05T09:35:00-04:00"
          }
        ],
        "status": "completed",
        "code": {
          "coding": [
            {
              "system": "http://snomed.info/sct",
              "code": "10745001"
            }
          ]
        },
        "subject": {
          "reference": "Patient/47ad2628-bec3-4c53-b106-adaceecc60ee"
        },
        "performedPeriod": {
          "start": "2024-02-01T08:00:00.000Z",
          "end": "2024-02-05T08:15:00.000Z"
        }
      },
      "request": {
        "method": "PUT",
        "url": "Procedure/06678b34-72e7-4173-a040-be2054bb3578"
      }
    },
    {
      "fullUrl": "https://madie.cms.gov/Condition/23779862-b765-4ebd-9fb4-62f4aa19eae3",
      "resource": {
        "resourceType": "Condition",
        "id": "23779862-b765-4ebd-9fb4-62f4aa19eae3",
        "meta": {
          "profile": [
            "http://hl7.org/fhir/us/qicore/StructureDefinition/qicore-condition"
          ]
        },
        "category": [
          {
            "coding": [
              {
                "system": "http://terminology.hl7.org/CodeSystem/condition-category",
                "code": "encounter-diagnosis",
                "display": "Encounter Diagnosis"
              }
            ]
          }
        ],
        "code": {
          "coding": [
            {
              "system": "http://snomed.info/sct",
              "version": "2022-09",
              "code": "840539006",
              "display": "Disease caused by severe acute respiratory syndrome coronavirus 2 (disorder)",
              "userSelected": true
            }
          ]
        },
        "subject": {
          "reference": "Patient/47ad2628-bec3-4c53-b106-adaceecc60ee"
        }
      },
      "request": {
        "method": "PUT",
        "url": "Condition/23779862-b765-4ebd-9fb4-62f4aa19eae3"
      }
    },
    {
      "fullUrl": "https://madie.cms.gov/Procedure/990b63b8-1711-448c-bd90-ec1a732d08f9",
      "resource": {
        "resourceType": "Procedure",
        "id": "990b63b8-1711-448c-bd90-ec1a732d08f9",
        "meta": {
          "profile": [
            "http://hl7.org/fhir/us/qicore/StructureDefinition/qicore-procedure"
          ]
        },
        "extension": [
          {
            "url": "http://hl7.org/fhir/us/qicore/StructureDefinition/qicore-recorded",
            "valueDateTime": "2013-04-05T09:35:00-04:00"
          }
        ],
        "status": "completed",
        "code": {
          "coding": [
            {
              "system": "http://snomed.info/sct",
              "version": "2022-09",
              "code": "233573008",
              "display": "Extracorporeal membrane oxygenation (procedure)",
              "userSelected": true
            }
          ]
        },
        "subject": {
          "reference": "Patient/47ad2628-bec3-4c53-b106-adaceecc60ee"
        },
        "performedDateTime": "2022-01-31T23:59:00.000+00:00"
      },
      "request": {
        "method": "PUT",
        "url": "Procedure/990b63b8-1711-448c-bd90-ec1a732d08f9"
      }
    },
    {
      "fullUrl": "https://madie.cms.gov/Coverage/516dcac6-3687-41d3-aca4-9eb0aa16f87b",
      "resource": {
        "resourceType": "Coverage",
        "id": "516dcac6-3687-41d3-aca4-9eb0aa16f87b",
        "meta": {
          "profile": [
            "http://hl7.org/fhir/us/qicore/StructureDefinition/qicore-coverage"
          ]
        },
        "status": "active",
        "beneficiary": {
          "reference": "Patient/47ad2628-bec3-4c53-b106-adaceecc60ee"
        },
        "payor": [
          {
            "reference": "Organization/b81b491f-bc7f-47a2-84c8-f4675ef1fb69"
          }
        ]
      },
      "request": {
        "method": "PUT",
        "url": "Coverage/516dcac6-3687-41d3-aca4-9eb0aa16f87b"
      }
    },
    {
      "fullUrl": "https://madie.cms.gov/Organization/b81b491f-bc7f-47a2-84c8-f4675ef1fb69",
      "resource": {
        "resourceType": "Organization",
        "id": "b81b491f-bc7f-47a2-84c8-f4675ef1fb69",
        "meta": {
          "profile": [
            "http://hl7.org/fhir/us/qicore/StructureDefinition/qicore-organization"
          ]
        },
        "identifier": [
          {
            "use": "temp",
            "system": "urn:oid:2.16.840.1.113883.4.4",
            "value": "21-3259825"
          }
        ],
        "active": true,
        "type": [
          {
            "coding": [
              {
                "system": "http://terminology.hl7.org/CodeSystem/organization-type",
                "code": "pay",
                "display": "Payer"
              }
            ]
          }
        ],
        "name": "Blue Cross Blue Shield of Texas",
        "telecom": [
          {
            "system": "phone",
            "value": "(+1) 972-766-6900"
          }
        ],
        "address": [
          {
            "use": "billing",
            "type": "postal",
            "line": [
              "P.O. Box 660044"
            ],
            "city": "Dallas",
            "state": "TX",
            "postalCode": "75266-0044",
            "country": "USA"
          }
        ]
      },
      "request": {
        "method": "PUT",
        "url": "Organization/b81b491f-bc7f-47a2-84c8-f4675ef1fb69"
      }
    },
    {
      "fullUrl": "https://madie.cms.gov/Practitioner/89c4fc83-88ac-47bf-8382-441edf4f9a2e",
      "resource": {
        "resourceType": "Practitioner",
        "id": "89c4fc83-88ac-47bf-8382-441edf4f9a2e",
        "identifier": [
          {
            "system": "http://hl7.org/fhir/sid/us-npi",
            "value": "123456"
          }
        ],
        "name": [
          {
            "family": "Evil",
            "prefix": [
              "Dr"
            ]
          }
        ]
      },
      "request": {
        "method": "PUT",
        "url": "Practitioner/89c4fc83-88ac-47bf-8382-441edf4f9a2e"
      }
    },
    {
      "fullUrl": "https://madie.cms.gov/MeasureReport/568c70b3-1b22-4301-b5ad-4bcc25fec4fd",
      "resource": {
        "resourceType": "MeasureReport",
        "id": "568c70b3-1b22-4301-b5ad-4bcc25fec4fd",
        "meta": {
          "profile": [
            "http://hl7.org/fhir/us/cqfmeasures/StructureDefinition/test-case-cqfm"
          ]
        },
        "contained": [
          {
            "resourceType": "Parameters",
            "id": "2b1692f1-fe56-4e2d-ab23-994c15776d7d-parameters",
            "parameter": [
              {
                "name": "subject",
                "valueString": "47ad2628-bec3-4c53-b106-adaceecc60ee"
              }
            ]
          }
        ],
        "extension": [
          {
            "url": "http://hl7.org/fhir/us/cqfmeasures/StructureDefinition/cqfm-inputParameters",
            "valueReference": {
              "reference": "#2b1692f1-fe56-4e2d-ab23-994c15776d7d-parameters"
            }
          },
          {
            "url": "http://hl7.org/fhir/us/cqfmeasures/StructureDefinition/cqfm-testCaseDescription",
            "valueMarkdown": "Patient with confirmed COVID diagnosis and COVID related procedure which starts 11:59 pm day before encounter starts\n"
          }
        ],
        "modifierExtension": [
          {
            "url": "http://hl7.org/fhir/us/cqfmeasures/StructureDefinition/cqfm-isTestCase",
            "valueBoolean": true
          }
        ],
        "status": "complete",
        "type": "individual",
        "measure": "https://madie.cms.gov/Measure/SevereObstetricComplicationsFHIR",
        "period": {
          "start": "2024-01-01",
          "end": "2024-12-31"
        },
        "group": [
          {
            "population": [
              {
                "code": {
                  "coding": [
                    {
                      "system": "http://terminology.hl7.org/CodeSystem/measure-population",
                      "code": "initial-population",
                      "display": "Initial Population"
                    }
                  ]
                },
                "count": 1
              },
              {
                "code": {
                  "coding": [
                    {
                      "system": "http://terminology.hl7.org/CodeSystem/measure-population",
                      "code": "denominator",
                      "display": "Denominator"
                    }
                  ]
                },
                "count": 1
              },
              {
                "code": {
                  "coding": [
                    {
                      "system": "http://terminology.hl7.org/CodeSystem/measure-population",
                      "code": "denominator-exclusion",
                      "display": "Denominator Exclusion"
                    }
                  ]
                },
                "count": 0
              },
              {
                "code": {
                  "coding": [
                    {
                      "system": "http://terminology.hl7.org/CodeSystem/measure-population",
                      "code": "numerator",
                      "display": "Numerator"
                    }
                  ]
                },
                "count": 0
              }
            ]
          }
        ],
        "evaluatedResource": [
          {
            "reference": "Patient/47ad2628-bec3-4c53-b106-adaceecc60ee"
          },
          {
            "reference": "Observation/ce7a6861-eee4-449f-89b6-9fe5aa6d8ff6"
          },
          {
            "reference": "Observation/e0ce7afb-9867-406e-bcb5-f57126c52316"
          },
          {
            "reference": "Encounter/ec48176e-8df0-4f04-af16-9639db3652c5"
          },
          {
            "reference": "Procedure/06678b34-72e7-4173-a040-be2054bb3578"
          },
          {
            "reference": "Condition/23779862-b765-4ebd-9fb4-62f4aa19eae3"
          },
          {
            "reference": "Procedure/990b63b8-1711-448c-bd90-ec1a732d08f9"
          },
          {
            "reference": "Coverage/516dcac6-3687-41d3-aca4-9eb0aa16f87b"
          },
          {
            "reference": "Organization/b81b491f-bc7f-47a2-84c8-f4675ef1fb69"
          },
          {
            "reference": "Practitioner/89c4fc83-88ac-47bf-8382-441edf4f9a2e"
          }
        ]
      },
      "request": {
        "method": "PUT",
        "url": "MeasureReport/568c70b3-1b22-4301-b5ad-4bcc25fec4fd"
      }
    }
  ]
}