{
  "resourceType": "Bundle",
  "id": "633b3f9e0968f80122503cce",
  "type": "transaction",
  "entry": [
    {
      "fullUrl": "https://madie.cms.gov/Patient/7e0294ff-9b6a-4b45-8033-d9630c4d4e98",
      "resource": {
        "resourceType": "Patient",
        "id": "7e0294ff-9b6a-4b45-8033-d9630c4d4e98",
        "meta": {
          "profile": [
            "http://hl7.org/fhir/us/qicore/StructureDefinition/qicore-patient"
          ]
        },
        "text": {
          "status": "generated",
          "div": "<div xmlns=\"http://www.w3.org/1999/xhtml\"><div class=\"hapiHeaderText\">AssPrfDELRsltDtTime_EQIPStart <b>DENOMPASS </b></div><table class=\"hapiPropertyTable\"><tbody><tr><td>Date of birth</td><td><span>01 February 2004</span></td></tr></tbody></table></div>"
        },
        "extension": [
          {
            "url": "http://hl7.org/fhir/us/core/StructureDefinition/us-core-race",
            "extension": [
              {
                "url": "ombCategory",
                "valueCoding": {
                  "system": "urn:oid:2.16.840.1.113883.6.238",
                  "code": "1002-5",
                  "display": "American Indian or Alaska Native",
                  "userSelected": true
                }
              },
              {
                "url": "text",
                "valueString": "American Indian or Alaska Native"
              }
            ]
          },
          {
            "url": "http://hl7.org/fhir/us/core/StructureDefinition/us-core-ethnicity",
            "extension": [
              {
                "url": "ombCategory",
                "valueCoding": {
                  "system": "urn:oid:2.16.840.1.113883.6.238",
                  "code": "2135-2",
                  "display": "Hispanic or Latino",
                  "userSelected": true
                }
              },
              {
                "url": "text",
                "valueString": "Hispanic or Latino"
              }
            ]
          }
        ],
        "identifier": [
          {
            "type": {
              "coding": [
                {
                  "system": "http://terminology.hl7.org/CodeSystem/v2-0203",
                  "code": "MR"
                }
              ]
            },
            "system": "https://bonnie-fhir.healthit.gov/",
            "value": "633b3f9e0968f80122503cce"
          }
        ],
        "active": true,
        "name": [
          {
            "use": "usual",
            "family": "DENOMPass",
            "given": [
              "AssPrfDELRsltDtTime_EQIPStart"
            ]
          }
        ],
        "gender": "female",
        "birthDate": "2004-02-01"
      },
      "request": {
        "method": "PUT",
        "url": "Patient/7e0294ff-9b6a-4b45-8033-d9630c4d4e98"
      }
    },
    {
      "fullUrl": "https://madie.cms.gov/Observation/f4abdbac-cd63-4556-b8c4-0de5f0250e30",
      "resource": {
        "resourceType": "Observation",
        "id": "f4abdbac-cd63-4556-b8c4-0de5f0250e30",
        "meta": {
          "profile": [
            "http://hl7.org/fhir/us/qicore/StructureDefinition/qicore-observation"
          ]
        },
        "status": "final",
        "category": [
          {
            "coding": [
              {
                "system": "http://terminology.hl7.org/CodeSystem/observation-category",
                "code": "exam",
                "display": "exam",
                "userSelected": true
              }
            ]
          }
        ],
        "code": {
          "coding": [
            {
              "system": "http://loinc.org",
              "code": "93857-1"
            }
          ]
        },
        "subject": {
          "reference": "Patient/7e0294ff-9b6a-4b45-8033-d9630c4d4e98"
        },
        "effectiveDateTime": "2024-02-01T08:00:00.000+00:00",
        "valueDateTime": "2024-02-01T08:00:00+00:00"
      },
      "request": {
        "method": "PUT",
        "url": "Observation/f4abdbac-cd63-4556-b8c4-0de5f0250e30"
      }
    },
    {
      "fullUrl": "https://madie.cms.gov/Observation/f9f9fd4b-ad97-4b93-b20a-3d1bdd8a3eef",
      "resource": {
        "resourceType": "Observation",
        "id": "f9f9fd4b-ad97-4b93-b20a-3d1bdd8a3eef",
        "meta": {
          "profile": [
            "http://hl7.org/fhir/us/qicore/StructureDefinition/qicore-observation"
          ]
        },
        "status": "final",
        "category": [
          {
            "coding": [
              {
                "system": "http://terminology.hl7.org/CodeSystem/observation-category",
                "code": "exam",
                "display": "exam",
                "userSelected": true
              }
            ]
          }
        ],
        "code": {
          "coding": [
            {
              "system": "http://loinc.org",
              "code": "11778-8"
            }
          ]
        },
        "subject": {
          "reference": "Patient/7e0294ff-9b6a-4b45-8033-d9630c4d4e98"
        },
        "effectiveDateTime": "2024-02-01T08:00:00.000+00:00",
        "valueDateTime": "2024-02-01T08:00:00.000+00:00"
      },
      "request": {
        "method": "PUT",
        "url": "Observation/f9f9fd4b-ad97-4b93-b20a-3d1bdd8a3eef"
      }
    },
    {
      "fullUrl": "https://madie.cms.gov/Encounter/81da0d0e-e5f6-4b12-8816-e0a0f18fcaea",
      "resource": {
        "resourceType": "Encounter",
        "id": "81da0d0e-e5f6-4b12-8816-e0a0f18fcaea",
        "meta": {
          "profile": [
            "http://hl7.org/fhir/us/qicore/StructureDefinition/qicore-encounter"
          ]
        },
        "status": "finished",
        "class": {
          "system": "http://terminology.hl7.org/CodeSystem/v3-ActCode",
          "code": "IMP",
          "display": "inpatient encounter"
        },
        "type": [
          {
            "coding": [
              {
                "system": "http://snomed.info/sct",
                "code": "183452005"
              }
            ]
          }
        ],
        "subject": {
          "reference": "Patient/7e0294ff-9b6a-4b45-8033-d9630c4d4e98"
        },
        "period": {
          "start": "2024-02-01T08:00:00.000Z",
          "end": "2024-02-05T08:15:00.000Z"
        }
      },
      "request": {
        "method": "PUT",
        "url": "Encounter/81da0d0e-e5f6-4b12-8816-e0a0f18fcaea"
      }
    },
    {
      "fullUrl": "https://madie.cms.gov/Procedure/b877f877-8d0b-4a79-af3a-86d3022baeb8",
      "resource": {
        "resourceType": "Procedure",
        "id": "b877f877-8d0b-4a79-af3a-86d3022baeb8",
        "meta": {
          "profile": [
            "http://hl7.org/fhir/us/qicore/StructureDefinition/qicore-procedure"
          ]
        },
        "extension": [
          {
            "url": "http://hl7.org/fhir/us/qicore/StructureDefinition/qicore-recorded",
            "valueDateTime": "2013-04-05T09:35:00-04:00"
          }
        ],
        "status": "completed",
        "code": {
          "coding": [
            {
              "system": "http://snomed.info/sct",
              "code": "10745001"
            }
          ]
        },
        "subject": {
          "reference": "Patient/7e0294ff-9b6a-4b45-8033-d9630c4d4e98"
        },
        "performedPeriod": {
          "start": "2024-02-01T08:00:00.000Z",
          "end": "2024-02-05T08:15:00.000Z"
        }
      },
      "request": {
        "method": "PUT",
        "url": "Procedure/b877f877-8d0b-4a79-af3a-86d3022baeb8"
      }
    },
    {
      "fullUrl": "https://madie.cms.gov/Coverage/f6d98b29-b50f-42d8-89a9-e6ca4c73b012",
      "resource": {
        "resourceType": "Coverage",
        "id": "f6d98b29-b50f-42d8-89a9-e6ca4c73b012",
        "meta": {
          "profile": [
            "http://hl7.org/fhir/us/qicore/StructureDefinition/qicore-coverage"
          ]
        },
        "status": "active",
        "beneficiary": {
          "reference": "Patient/7e0294ff-9b6a-4b45-8033-d9630c4d4e98"
        },
        "payor": [
          {
            "reference": "Organization/7f5b6e1c-949c-4383-8b13-796c555044b6"
          }
        ]
      },
      "request": {
        "method": "PUT",
        "url": "Coverage/f6d98b29-b50f-42d8-89a9-e6ca4c73b012"
      }
    },
    {
      "fullUrl": "https://madie.cms.gov/Organization/7f5b6e1c-949c-4383-8b13-796c555044b6",
      "resource": {
        "resourceType": "Organization",
        "id": "7f5b6e1c-949c-4383-8b13-796c555044b6",
        "meta": {
          "profile": [
            "http://hl7.org/fhir/us/qicore/StructureDefinition/qicore-organization"
          ]
        },
        "identifier": [
          {
            "use": "temp",
            "system": "urn:oid:2.16.840.1.113883.4.4",
            "value": "21-3259825"
          }
        ],
        "active": true,
        "type": [
          {
            "coding": [
              {
                "system": "http://terminology.hl7.org/CodeSystem/organization-type",
                "code": "pay",
                "display": "Payer"
              }
            ]
          }
        ],
        "name": "Blue Cross Blue Shield of Texas",
        "telecom": [
          {
            "system": "phone",
            "value": "(+1) 972-766-6900"
          }
        ],
        "address": [
          {
            "use": "billing",
            "type": "postal",
            "line": [
              "P.O. Box 660044"
            ],
            "city": "Dallas",
            "state": "TX",
            "postalCode": "75266-0044",
            "country": "USA"
          }
        ]
      },
      "request": {
        "method": "PUT",
        "url": "Organization/7f5b6e1c-949c-4383-8b13-796c555044b6"
      }
    },
    {
      "fullUrl": "https://madie.cms.gov/Practitioner/04239768-62a7-43fb-805a-59fa5e71defd",
      "resource": {
        "resourceType": "Practitioner",
        "id": "04239768-62a7-43fb-805a-59fa5e71defd",
        "identifier": [
          {
            "system": "http://hl7.org/fhir/sid/us-npi",
            "value": "123456"
          }
        ],
        "name": [
          {
            "family": "Evil",
            "prefix": [
              "Dr"
            ]
          }
        ]
      },
      "request": {
        "method": "PUT",
        "url": "Practitioner/04239768-62a7-43fb-805a-59fa5e71defd"
      }
    },
    {
      "fullUrl": "https://madie.cms.gov/MeasureReport/4db7bc9b-38b1-46a1-bbad-c51a8eed3a26",
      "resource": {
        "resourceType": "MeasureReport",
        "id": "4db7bc9b-38b1-46a1-bbad-c51a8eed3a26",
        "meta": {
          "profile": [
            "http://hl7.org/fhir/us/cqfmeasures/StructureDefinition/test-case-cqfm"
          ]
        },
        "contained": [
          {
            "resourceType": "Parameters",
            "id": "1f1b1cfd-b0dc-4d83-98ae-1819f36d0219-parameters",
            "parameter": [
              {
                "name": "subject",
                "valueString": "7e0294ff-9b6a-4b45-8033-d9630c4d4e98"
              }
            ]
          }
        ],
        "extension": [
          {
            "url": "http://hl7.org/fhir/us/cqfmeasures/StructureDefinition/cqfm-inputParameters",
            "valueReference": {
              "reference": "#1f1b1cfd-b0dc-4d83-98ae-1819f36d0219-parameters"
            }
          },
          {
            "url": "http://hl7.org/fhir/us/cqfmeasures/StructureDefinition/cqfm-testCaseDescription",
            "valueMarkdown": "\"Result date/Time of delivery (based on assessment performed) is equal to encounter start\n.\"\n"
          }
        ],
        "modifierExtension": [
          {
            "url": "http://hl7.org/fhir/us/cqfmeasures/StructureDefinition/cqfm-isTestCase",
            "valueBoolean": true
          }
        ],
        "status": "complete",
        "type": "individual",
        "measure": "https://madie.cms.gov/Measure/SevereObstetricComplicationsFHIR",
        "period": {
          "start": "2024-01-01",
          "end": "2024-12-31"
        },
        "group": [
          {
            "population": [
              {
                "code": {
                  "coding": [
                    {
                      "system": "http://terminology.hl7.org/CodeSystem/measure-population",
                      "code": "initial-population",
                      "display": "Initial Population"
                    }
                  ]
                },
                "count": 1
              },
              {
                "code": {
                  "coding": [
                    {
                      "system": "http://terminology.hl7.org/CodeSystem/measure-population",
                      "code": "denominator",
                      "display": "Denominator"
                    }
                  ]
                },
                "count": 1
              },
              {
                "code": {
                  "coding": [
                    {
                      "system": "http://terminology.hl7.org/CodeSystem/measure-population",
                      "code": "denominator-exclusion",
                      "display": "Denominator Exclusion"
                    }
                  ]
                },
                "count": 0
              },
              {
                "code": {
                  "coding": [
                    {
                      "system": "http://terminology.hl7.org/CodeSystem/measure-population",
                      "code": "numerator",
                      "display": "Numerator"
                    }
                  ]
                },
                "count": 0
              }
            ]
          }
        ],
        "evaluatedResource": [
          {
            "reference": "Patient/7e0294ff-9b6a-4b45-8033-d9630c4d4e98"
          },
          {
            "reference": "Observation/f4abdbac-cd63-4556-b8c4-0de5f0250e30"
          },
          {
            "reference": "Observation/f9f9fd4b-ad97-4b93-b20a-3d1bdd8a3eef"
          },
          {
            "reference": "Encounter/81da0d0e-e5f6-4b12-8816-e0a0f18fcaea"
          },
          {
            "reference": "Procedure/b877f877-8d0b-4a79-af3a-86d3022baeb8"
          },
          {
            "reference": "Coverage/f6d98b29-b50f-42d8-89a9-e6ca4c73b012"
          },
          {
            "reference": "Organization/7f5b6e1c-949c-4383-8b13-796c555044b6"
          },
          {
            "reference": "Practitioner/04239768-62a7-43fb-805a-59fa5e71defd"
          }
        ]
      },
      "request": {
        "method": "PUT",
        "url": "MeasureReport/4db7bc9b-38b1-46a1-bbad-c51a8eed3a26"
      }
    }
  ]
}