{
  "resourceType": "Bundle",
  "id": "63594c7a6aee9629c82981df",
  "type": "transaction",
  "entry": [
    {
      "fullUrl": "https://madie.cms.gov/Patient/2df5c499-616a-438f-ac8d-4f398b9a1e32",
      "resource": {
        "resourceType": "Patient",
        "id": "2df5c499-616a-438f-ac8d-4f398b9a1e32",
        "meta": {
          "profile": [
            "http://hl7.org/fhir/us/qicore/StructureDefinition/qicore-patient"
          ]
        },
        "text": {
          "status": "generated",
          "div": "<div xmlns=\"http://www.w3.org/1999/xhtml\"><div class=\"hapiHeaderText\">2RiskFactors<b>NUMPass </b></div><table class=\"hapiPropertyTable\"><tbody><tr><td>Date of birth</td><td><span>01 February 2004</span></td></tr></tbody></table></div>"
        },
        "extension": [
          {
            "url": "http://hl7.org/fhir/us/core/StructureDefinition/us-core-race",
            "extension": [
              {
                "url": "ombCategory",
                "valueCoding": {
                  "system": "urn:oid:2.16.840.1.113883.6.238",
                  "code": "1002-5",
                  "display": "American Indian or Alaska Native",
                  "userSelected": true
                }
              },
              {
                "url": "text",
                "valueString": "American Indian or Alaska Native"
              }
            ]
          },
          {
            "url": "http://hl7.org/fhir/us/core/StructureDefinition/us-core-ethnicity",
            "extension": [
              {
                "url": "ombCategory",
                "valueCoding": {
                  "system": "urn:oid:2.16.840.1.113883.6.238",
                  "code": "2135-2",
                  "display": "Hispanic or Latino",
                  "userSelected": true
                }
              },
              {
                "url": "text",
                "valueString": "Hispanic or Latino"
              }
            ]
          }
        ],
        "identifier": [
          {
            "type": {
              "coding": [
                {
                  "system": "http://terminology.hl7.org/CodeSystem/v2-0203",
                  "code": "MR"
                }
              ]
            },
            "system": "https://bonnie-fhir.healthit.gov/",
            "value": "63594c7a6aee9629c82981df"
          }
        ],
        "active": true,
        "name": [
          {
            "use": "usual",
            "family": "NumPass",
            "given": [
              "2RiskFactors"
            ]
          }
        ],
        "gender": "female",
        "birthDate": "2004-02-01"
      },
      "request": {
        "method": "PUT",
        "url": "Patient/2df5c499-616a-438f-ac8d-4f398b9a1e32"
      }
    },
    {
      "fullUrl": "https://madie.cms.gov/Observation/238e6ad1-2781-4099-9e5f-34815ac031c1",
      "resource": {
        "resourceType": "Observation",
        "id": "238e6ad1-2781-4099-9e5f-34815ac031c1",
        "meta": {
          "profile": [
            "http://hl7.org/fhir/us/qicore/StructureDefinition/qicore-observation"
          ]
        },
        "status": "final",
        "category": [
          {
            "coding": [
              {
                "system": "http://terminology.hl7.org/CodeSystem/observation-category",
                "code": "exam",
                "display": "exam",
                "userSelected": true
              }
            ]
          }
        ],
        "code": {
          "coding": [
            {
              "system": "http://loinc.org",
              "code": "93857-1"
            }
          ]
        },
        "subject": {
          "reference": "Patient/2df5c499-616a-438f-ac8d-4f398b9a1e32"
        },
        "effectiveDateTime": "2024-02-01T08:00:00.000+00:00",
        "valueDateTime": "2024-02-01T08:00:00+00:00"
      },
      "request": {
        "method": "PUT",
        "url": "Observation/238e6ad1-2781-4099-9e5f-34815ac031c1"
      }
    },
    {
      "fullUrl": "https://madie.cms.gov/Observation/221d096a-a462-4db4-bb09-00381c93806d",
      "resource": {
        "resourceType": "Observation",
        "id": "221d096a-a462-4db4-bb09-00381c93806d",
        "meta": {
          "profile": [
            "http://hl7.org/fhir/us/qicore/StructureDefinition/qicore-observation"
          ]
        },
        "status": "final",
        "category": [
          {
            "coding": [
              {
                "system": "http://terminology.hl7.org/CodeSystem/observation-category",
                "code": "exam",
                "display": "exam",
                "userSelected": true
              }
            ]
          }
        ],
        "code": {
          "coding": [
            {
              "system": "http://loinc.org",
              "code": "11778-8"
            }
          ]
        },
        "subject": {
          "reference": "Patient/2df5c499-616a-438f-ac8d-4f398b9a1e32"
        },
        "effectiveDateTime": "2024-02-01T08:00:00.000+00:00",
        "valueDateTime": "2024-02-01T00:00:00.000+00:00"
      },
      "request": {
        "method": "PUT",
        "url": "Observation/221d096a-a462-4db4-bb09-00381c93806d"
      }
    },
    {
      "fullUrl": "https://madie.cms.gov/Encounter/40a3aee7-906b-4e1d-b38c-0ee21b87e72d",
      "resource": {
        "resourceType": "Encounter",
        "id": "40a3aee7-906b-4e1d-b38c-0ee21b87e72d",
        "meta": {
          "profile": [
            "http://hl7.org/fhir/us/qicore/StructureDefinition/qicore-encounter"
          ]
        },
        "status": "finished",
        "class": {
          "system": "http://terminology.hl7.org/CodeSystem/v3-ActCode",
          "code": "IMP",
          "display": "inpatient encounter"
        },
        "type": [
          {
            "coding": [
              {
                "system": "http://snomed.info/sct",
                "code": "183452005"
              }
            ]
          }
        ],
        "subject": {
          "reference": "Patient/2df5c499-616a-438f-ac8d-4f398b9a1e32"
        },
        "period": {
          "start": "2024-02-01T08:00:00.000Z",
          "end": "2024-02-05T08:15:00.000Z"
        },
        "diagnosis": [
          {
            "extension": [
              {
                "url": "http://hl7.org/fhir/us/qicore/StructureDefinition/qicore-encounter-diagnosisPresentOnAdmission",
                "valueCodeableConcept": {
                  "coding": [
                    {
                      "system": "https://www.cms.gov/Medicare/Medicare-Fee-for-Service-Payment/HospitalAcqCond/Coding",
                      "code": "Y"
                    }
                  ]
                }
              }
            ],
            "condition": {
              "reference": "BariatricSurgery-81e0"
            }
          },
          {
            "extension": [
              {
                "url": "http://hl7.org/fhir/us/qicore/StructureDefinition/qicore-encounter-diagnosisPresentOnAdmission",
                "valueCodeableConcept": {
                  "coding": [
                    {
                      "system": "https://www.cms.gov/Medicare/Medicare-Fee-for-Service-Payment/HospitalAcqCond/Coding",
                      "code": "Y"
                    }
                  ]
                }
              }
            ],
            "condition": {
              "reference": "asthma-81e0"
            }
          },
          {
            "extension": [
              {
                "url": "http://hl7.org/fhir/us/qicore/StructureDefinition/qicore-encounter-diagnosisPresentOnAdmission",
                "valueCodeableConcept": {
                  "coding": [
                    {
                      "system": "https://www.cms.gov/Medicare/Medicare-Fee-for-Service-Payment/HospitalAcqCond/Coding",
                      "code": "N"
                    }
                  ]
                }
              }
            ],
            "condition": {
              "reference": "severe-maternal-morbidity-diagnoses-adc1"
            }
          }
        ]
      },
      "request": {
        "method": "PUT",
        "url": "Encounter/40a3aee7-906b-4e1d-b38c-0ee21b87e72d"
      }
    },
    {
      "fullUrl": "https://madie.cms.gov/Procedure/7ae0a2a8-17a0-450f-a508-6a3ea0462275",
      "resource": {
        "resourceType": "Procedure",
        "id": "7ae0a2a8-17a0-450f-a508-6a3ea0462275",
        "meta": {
          "profile": [
            "http://hl7.org/fhir/us/qicore/StructureDefinition/qicore-procedure"
          ]
        },
        "extension": [
          {
            "url": "http://hl7.org/fhir/us/qicore/StructureDefinition/qicore-recorded",
            "valueDateTime": "2013-04-05T09:35:00-04:00"
          }
        ],
        "status": "completed",
        "code": {
          "coding": [
            {
              "system": "http://snomed.info/sct",
              "code": "10745001"
            }
          ]
        },
        "subject": {
          "reference": "Patient/2df5c499-616a-438f-ac8d-4f398b9a1e32"
        },
        "performedDateTime": "2024-02-01T08:00:00.000+00:00"
      },
      "request": {
        "method": "PUT",
        "url": "Procedure/7ae0a2a8-17a0-450f-a508-6a3ea0462275"
      }
    },
    {
      "fullUrl": "https://madie.cms.gov/Condition/918a50b9-05c0-4b2e-bc90-2da821d7d32b",
      "resource": {
        "resourceType": "Condition",
        "id": "918a50b9-05c0-4b2e-bc90-2da821d7d32b",
        "meta": {
          "profile": [
            "http://hl7.org/fhir/us/qicore/StructureDefinition/qicore-condition"
          ]
        },
        "category": [
          {
            "coding": [
              {
                "system": "http://terminology.hl7.org/CodeSystem/condition-category",
                "code": "encounter-diagnosis",
                "display": "Encounter Diagnosis"
              }
            ]
          }
        ],
        "code": {
          "coding": [
            {
              "system": "http://hl7.org/fhir/sid/icd-10-cm",
              "version": "2023",
              "code": "A32.7",
              "display": "Listerial sepsis",
              "userSelected": true
            }
          ]
        },
        "subject": {
          "reference": "Patient/2df5c499-616a-438f-ac8d-4f398b9a1e32"
        },
        "recordedDate": "2024-10-26T08:00:00.000+00:00"
      },
      "request": {
        "method": "PUT",
        "url": "Condition/918a50b9-05c0-4b2e-bc90-2da821d7d32b"
      }
    },
    {
      "fullUrl": "https://madie.cms.gov/Condition/eac3390f-9586-481d-a0bf-95df13f06bcb",
      "resource": {
        "resourceType": "Condition",
        "id": "eac3390f-9586-481d-a0bf-95df13f06bcb",
        "meta": {
          "profile": [
            "http://hl7.org/fhir/us/qicore/StructureDefinition/qicore-condition"
          ]
        },
        "category": [
          {
            "coding": [
              {
                "system": "http://terminology.hl7.org/CodeSystem/condition-category",
                "code": "encounter-diagnosis",
                "display": "Encounter Diagnosis"
              }
            ]
          }
        ],
        "code": {
          "coding": [
            {
              "system": "http://hl7.org/fhir/sid/icd-10-cm",
              "version": "2023",
              "code": "J45.21",
              "display": "Asthma",
              "userSelected": true
            }
          ]
        },
        "subject": {
          "reference": "Patient/2df5c499-616a-438f-ac8d-4f398b9a1e32"
        },
        "recordedDate": "2024-10-26T08:00:00.000+00:00"
      },
      "request": {
        "method": "PUT",
        "url": "Condition/eac3390f-9586-481d-a0bf-95df13f06bcb"
      }
    },
    {
      "fullUrl": "https://madie.cms.gov/Condition/83994c69-f9a1-47b0-afe5-f443a5f4f920",
      "resource": {
        "resourceType": "Condition",
        "id": "83994c69-f9a1-47b0-afe5-f443a5f4f920",
        "meta": {
          "profile": [
            "http://hl7.org/fhir/us/qicore/StructureDefinition/qicore-condition"
          ]
        },
        "category": [
          {
            "coding": [
              {
                "system": "http://terminology.hl7.org/CodeSystem/condition-category",
                "code": "encounter-diagnosis",
                "display": "Encounter Diagnosis"
              }
            ]
          }
        ],
        "code": {
          "coding": [
            {
              "system": "http://hl7.org/fhir/sid/icd-10-cm",
              "version": "2023",
              "code": "O99.840",
              "display": "Bariatric Surgery-81e0",
              "userSelected": true
            }
          ]
        },
        "subject": {
          "reference": "Patient/2df5c499-616a-438f-ac8d-4f398b9a1e32"
        },
        "recordedDate": "2024-10-26T08:00:00.000+00:00"
      },
      "request": {
        "method": "PUT",
        "url": "Condition/83994c69-f9a1-47b0-afe5-f443a5f4f920"
      }
    },
    {
      "fullUrl": "https://madie.cms.gov/MeasureReport/19eedefd-33ff-4478-8961-4cec4cd0ab2c",
      "resource": {
        "resourceType": "MeasureReport",
        "id": "19eedefd-33ff-4478-8961-4cec4cd0ab2c",
        "meta": {
          "profile": [
            "http://hl7.org/fhir/us/cqfmeasures/StructureDefinition/test-case-cqfm"
          ]
        },
        "contained": [
          {
            "resourceType": "Parameters",
            "id": "dc98d27e-e786-4b81-bc9a-e6cdf02eba28-parameters",
            "parameter": [
              {
                "name": "subject",
                "valueString": "2df5c499-616a-438f-ac8d-4f398b9a1e32"
              }
            ]
          }
        ],
        "extension": [
          {
            "url": "http://hl7.org/fhir/us/cqfmeasures/StructureDefinition/cqfm-inputParameters",
            "valueReference": {
              "reference": "#dc98d27e-e786-4b81-bc9a-e6cdf02eba28-parameters"
            }
          },
          {
            "url": "http://hl7.org/fhir/us/cqfmeasures/StructureDefinition/cqfm-testCaseDescription",
            "valueMarkdown": "2 Risk factors (bariatric surgery and asthma) are true in numerator case.\n"
          }
        ],
        "modifierExtension": [
          {
            "url": "http://hl7.org/fhir/us/cqfmeasures/StructureDefinition/cqfm-isTestCase",
            "valueBoolean": true
          }
        ],
        "status": "complete",
        "type": "individual",
        "measure": "https://madie.cms.gov/Measure/SevereObstetricComplicationsFHIR",
        "period": {
          "start": "2024-01-01",
          "end": "2024-12-31"
        },
        "group": [
          {
            "population": [
              {
                "code": {
                  "coding": [
                    {
                      "system": "http://terminology.hl7.org/CodeSystem/measure-population",
                      "code": "initial-population",
                      "display": "Initial Population"
                    }
                  ]
                },
                "count": 1
              },
              {
                "code": {
                  "coding": [
                    {
                      "system": "http://terminology.hl7.org/CodeSystem/measure-population",
                      "code": "denominator",
                      "display": "Denominator"
                    }
                  ]
                },
                "count": 1
              },
              {
                "code": {
                  "coding": [
                    {
                      "system": "http://terminology.hl7.org/CodeSystem/measure-population",
                      "code": "denominator-exclusion",
                      "display": "Denominator Exclusion"
                    }
                  ]
                },
                "count": 0
              },
              {
                "code": {
                  "coding": [
                    {
                      "system": "http://terminology.hl7.org/CodeSystem/measure-population",
                      "code": "numerator",
                      "display": "Numerator"
                    }
                  ]
                },
                "count": 1
              }
            ]
          }
        ],
        "evaluatedResource": [
          {
            "reference": "Patient/2df5c499-616a-438f-ac8d-4f398b9a1e32"
          },
          {
            "reference": "Observation/238e6ad1-2781-4099-9e5f-34815ac031c1"
          },
          {
            "reference": "Observation/221d096a-a462-4db4-bb09-00381c93806d"
          },
          {
            "reference": "Encounter/40a3aee7-906b-4e1d-b38c-0ee21b87e72d"
          },
          {
            "reference": "Procedure/7ae0a2a8-17a0-450f-a508-6a3ea0462275"
          },
          {
            "reference": "Condition/918a50b9-05c0-4b2e-bc90-2da821d7d32b"
          },
          {
            "reference": "Condition/eac3390f-9586-481d-a0bf-95df13f06bcb"
          },
          {
            "reference": "Condition/83994c69-f9a1-47b0-afe5-f443a5f4f920"
          }
        ]
      },
      "request": {
        "method": "PUT",
        "url": "MeasureReport/19eedefd-33ff-4478-8961-4cec4cd0ab2c"
      }
    }
  ]
}