{"resourceType":"Bundle","id":"tests-8dcbe265-4521-4dfd-b2de-befb650be538-bundle","type":"transaction","entry":[{"fullUrl":"https://madie.cms.gov/Patient/8dcbe265-4521-4dfd-b2de-befb650be538","resource":{"resourceType":"Patient","id":"8dcbe265-4521-4dfd-b2de-befb650be538","meta":{"profile":["http://hl7.org/fhir/us/qicore/StructureDefinition/qicore-patient"]},"extension":[{"url":"http://hl7.org/fhir/us/core/StructureDefinition/us-core-race","extension":[{"url":"ombCategory","valueCoding":{"system":"urn:oid:2.16.840.1.113883.6.238","code":"2106-3","display":"White"}},{"url":"text","valueString":"White"}]},{"url":"http://hl7.org/fhir/us/core/StructureDefinition/us-core-ethnicity","extension":[{"url":"ombCategory","valueCoding":{"system":"urn:oid:2.16.840.1.113883.6.238","code":"2135-2","display":"Hispanic or Latino"}},{"url":"text","valueString":"Hispanic or Latino"}]}],"identifier":[{"system":"http://hospital.smarthealthit.org","value":"999999999"}],"name":[{"family":"Example","given":["Patient"]}],"gender":"other","birthDate":"1955-01-01"},"request":{"method":"PUT","url":"Patient/8dcbe265-4521-4dfd-b2de-befb650be538"}},{"fullUrl":"https://madie.cms.gov/Encounter/c825a794-b569-4684-aedc-7a25565b460d","resource":{"resourceType":"Encounter","id":"c825a794-b569-4684-aedc-7a25565b460d","meta":{"profile":["http://hl7.org/fhir/us/qicore/StructureDefinition/qicore-encounter"]},"status":"finished","class":{"system":"http://terminology.hl7.org/CodeSystem/v3-ActCode","code":"IMP","display":"inpatient encounter"},"type":[{"coding":[{"system":"http://snomed.info/sct","code":"183452005"}]}],"subject":{"reference":"Patient/8dcbe265-4521-4dfd-b2de-befb650be538"},"period":{"start":"2025-04-07T08:00:00.000Z","end":"2025-04-11T08:15:00.000Z"}},"request":{"method":"PUT","url":"Encounter/c825a794-b569-4684-aedc-7a25565b460d"}},{"fullUrl":"https://madie.cms.gov/Observation/3611df84-3efb-41a8-83e7-04df32aa9eaa","resource":{"resourceType":"Observation","id":"3611df84-3efb-41a8-83e7-04df32aa9eaa","meta":{"profile":["http://hl7.org/fhir/us/qicore/StructureDefinition/qicore-observation"]},"status":"final","category":[{"coding":[{"system":"http://terminology.hl7.org/CodeSystem/observation-category","code":"laboratory","display":"Laboratory"}]}],"code":{"coding":[{"system":"http://loinc.org","version":"2.72","code":"1556-0","display":"Fasting glucose [Mass/volume] in Capillary blood","userSelected":true}]},"subject":{"reference":"Patient/8dcbe265-4521-4dfd-b2de-befb650be538"},"effectiveDateTime":"2025-04-07T07:30:00.000+00:00","valueQuantity":{"value":999,"unit":"mg/dL"}},"request":{"method":"PUT","url":"Observation/3611df84-3efb-41a8-83e7-04df32aa9eaa"}},{"fullUrl":"https://madie.cms.gov/Observation/0634355d-5a9f-48cf-a237-65271681c0c6","resource":{"resourceType":"Observation","id":"0634355d-5a9f-48cf-a237-65271681c0c6","meta":{"profile":["http://hl7.org/fhir/us/qicore/StructureDefinition/qicore-observation"]},"status":"final","category":[{"coding":[{"system":"http://terminology.hl7.org/CodeSystem/observation-category","code":"laboratory","display":"Laboratory"}]}],"code":{"coding":[{"system":"http://loinc.org","version":"2.72","code":"1556-0","display":"Fasting glucose [Mass/volume] in Capillary blood","userSelected":true}]},"subject":{"reference":"Patient/8dcbe265-4521-4dfd-b2de-befb650be538"},"effectiveDateTime":"2025-04-07T08:00:00.000+00:00","valueQuantity":{"value":1001,"unit":"mg/dL"}},"request":{"method":"PUT","url":"Observation/0634355d-5a9f-48cf-a237-65271681c0c6"}},{"fullUrl":"https://madie.cms.gov/MeasureReport/34b8edc7-2b9e-4566-9548-500078516e4b","resource":{"resourceType":"MeasureReport","id":"34b8edc7-2b9e-4566-9548-500078516e4b","meta":{"profile":["http://hl7.org/fhir/us/cqfmeasures/StructureDefinition/test-case-cqfm"]},"contained":[{"resourceType":"Parameters","id":"044ac10d-efcf-484d-bf3c-e2ec43f49bce-parameters","parameter":[{"name":"subject","valueString":"8dcbe265-4521-4dfd-b2de-befb650be538"}]}],"extension":[{"url":"http://hl7.org/fhir/us/cqfmeasures/StructureDefinition/cqfm-inputParameters","valueReference":{"reference":"#044ac10d-efcf-484d-bf3c-e2ec43f49bce-parameters"}},{"url":"http://hl7.org/fhir/us/cqfmeasures/StructureDefinition/cqfm-testCaseDescription","valueMarkdown":"IP encounter where there is a glucose >1000mg/dL within 7-hr interval, but there is a glucose test done before it, so does not meet denom exclusion. The glucose >1000 must be the initial test. "}],"modifierExtension":[{"url":"http://hl7.org/fhir/us/cqfmeasures/StructureDefinition/cqfm-isTestCase","valueBoolean":true}],"status":"complete","type":"individual","measure":"https://madie.cms.gov/Measure/HospitalHarmHyperglycemiainHospitalizedPatientsFHIR","period":{"start":"2025-01-01","end":"2025-12-31"},"group":[{"population":[{"code":{"coding":[{"system":"http://terminology.hl7.org/CodeSystem/measure-population","code":"initial-population","display":"Initial Population"}]},"count":1},{"code":{"coding":[{"system":"http://terminology.hl7.org/CodeSystem/measure-population","code":"denominator","display":"Denominator"}]},"count":1},{"code":{"coding":[{"system":"http://terminology.hl7.org/CodeSystem/measure-population","code":"denominator-exclusion","display":"Denominator Exclusion"}]},"count":0},{"code":{"coding":[{"system":"http://terminology.hl7.org/CodeSystem/measure-population","code":"numerator","display":"Numerator"}]},"count":0},{"code":{"coding":[{"system":"http://terminology.hl7.org/CodeSystem/measure-population","code":"denominator-observation","display":"DenominatorObservation"}]},"count":3}]}],"evaluatedResource":[{"reference":"Patient/8dcbe265-4521-4dfd-b2de-befb650be538"},{"reference":"Encounter/c825a794-b569-4684-aedc-7a25565b460d"},{"reference":"Observation/3611df84-3efb-41a8-83e7-04df32aa9eaa"},{"reference":"Observation/0634355d-5a9f-48cf-a237-65271681c0c6"}]},"request":{"method":"PUT","url":"MeasureReport/34b8edc7-2b9e-4566-9548-500078516e4b"}}]}