{"resourceType":"Bundle","id":"tests-ed4302ae-16ac-4491-9803-5421bb32997f-bundle","type":"transaction","entry":[{"fullUrl":"https://madie.cms.gov/Patient/ed4302ae-16ac-4491-9803-5421bb32997f","resource":{"resourceType":"Patient","id":"ed4302ae-16ac-4491-9803-5421bb32997f","meta":{"profile":["http://hl7.org/fhir/us/qicore/StructureDefinition/qicore-patient"]},"extension":[{"url":"http://hl7.org/fhir/us/core/StructureDefinition/us-core-race","extension":[{"url":"ombCategory","valueCoding":{"system":"urn:oid:2.16.840.1.113883.6.238","code":"2106-3","display":"White"}},{"url":"text","valueString":"White"}]},{"url":"http://hl7.org/fhir/us/core/StructureDefinition/us-core-ethnicity","extension":[{"url":"ombCategory","valueCoding":{"system":"urn:oid:2.16.840.1.113883.6.238","code":"2135-2","display":"Hispanic or Latino"}},{"url":"text","valueString":"Hispanic or Latino"}]}],"identifier":[{"system":"http://hospital.smarthealthit.org","value":"999999999"}],"name":[{"family":"Example","given":["Patient"]}],"gender":"male","birthDate":"1955-01-01"},"request":{"method":"PUT","url":"Patient/ed4302ae-16ac-4491-9803-5421bb32997f"}},{"fullUrl":"https://madie.cms.gov/Encounter/0ec5c30f-e8f6-43c3-aff8-3a31ae299ef6","resource":{"resourceType":"Encounter","id":"0ec5c30f-e8f6-43c3-aff8-3a31ae299ef6","meta":{"profile":["http://hl7.org/fhir/us/qicore/StructureDefinition/qicore-encounter"]},"status":"finished","class":{"system":"http://terminology.hl7.org/CodeSystem/v3-ActCode","code":"IMP","display":"inpatient encounter"},"type":[{"coding":[{"system":"http://snomed.info/sct","code":"183452005"}]}],"subject":{"reference":"Patient/ed4302ae-16ac-4491-9803-5421bb32997f"},"period":{"start":"2025-04-07T08:00:00.000Z","end":"2025-04-11T08:15:00.000Z"}},"request":{"method":"PUT","url":"Encounter/0ec5c30f-e8f6-43c3-aff8-3a31ae299ef6"}},{"fullUrl":"https://madie.cms.gov/Observation/337a4abf-0f88-4357-9e5d-a4115b1adfeb","resource":{"resourceType":"Observation","id":"337a4abf-0f88-4357-9e5d-a4115b1adfeb","meta":{"profile":["http://hl7.org/fhir/us/qicore/StructureDefinition/qicore-observation"]},"status":"final","category":[{"coding":[{"system":"http://terminology.hl7.org/CodeSystem/observation-category","code":"laboratory","display":"Laboratory"}]}],"code":{"coding":[{"system":"http://loinc.org","version":"2.72","code":"1556-0","display":"Fasting glucose [Mass/volume] in Capillary blood","userSelected":true}]},"subject":{"reference":"Patient/ed4302ae-16ac-4491-9803-5421bb32997f"},"effectiveDateTime":"2025-04-08T07:00:00.000+00:00","valueQuantity":{"value":210,"unit":"mg/dL"}},"request":{"method":"PUT","url":"Observation/337a4abf-0f88-4357-9e5d-a4115b1adfeb"}},{"fullUrl":"https://madie.cms.gov/MeasureReport/322e35b8-a1d3-42ba-b034-e98a349617b0","resource":{"resourceType":"MeasureReport","id":"322e35b8-a1d3-42ba-b034-e98a349617b0","meta":{"profile":["http://hl7.org/fhir/us/cqfmeasures/StructureDefinition/test-case-cqfm"]},"contained":[{"resourceType":"Parameters","id":"aa80293e-c8c6-41fd-9350-205328c36c93-parameters","parameter":[{"name":"subject","valueString":"ed4302ae-16ac-4491-9803-5421bb32997f"}]}],"extension":[{"url":"http://hl7.org/fhir/us/cqfmeasures/StructureDefinition/cqfm-inputParameters","valueReference":{"reference":"#aa80293e-c8c6-41fd-9350-205328c36c93-parameters"}},{"url":"http://hl7.org/fhir/us/cqfmeasures/StructureDefinition/cqfm-testCaseDescription","valueMarkdown":"Inpatient hospitalization where patient has glucose 210 mg/dL on day 3 of stay. Meets denominator criteria"}],"modifierExtension":[{"url":"http://hl7.org/fhir/us/cqfmeasures/StructureDefinition/cqfm-isTestCase","valueBoolean":true}],"status":"complete","type":"individual","measure":"https://madie.cms.gov/Measure/HospitalHarmHyperglycemiainHospitalizedPatientsFHIR","period":{"start":"2025-01-01","end":"2025-12-31"},"group":[{"population":[{"code":{"coding":[{"system":"http://terminology.hl7.org/CodeSystem/measure-population","code":"initial-population","display":"Initial Population"}]},"count":1},{"code":{"coding":[{"system":"http://terminology.hl7.org/CodeSystem/measure-population","code":"denominator","display":"Denominator"}]},"count":1},{"code":{"coding":[{"system":"http://terminology.hl7.org/CodeSystem/measure-population","code":"denominator-exclusion","display":"Denominator Exclusion"}]},"count":0},{"code":{"coding":[{"system":"http://terminology.hl7.org/CodeSystem/measure-population","code":"numerator","display":"Numerator"}]},"count":0},{"code":{"coding":[{"system":"http://terminology.hl7.org/CodeSystem/measure-population","code":"denominator-observation","display":"DenominatorObservation"}]},"count":3}]}],"evaluatedResource":[{"reference":"Patient/ed4302ae-16ac-4491-9803-5421bb32997f"},{"reference":"Encounter/0ec5c30f-e8f6-43c3-aff8-3a31ae299ef6"},{"reference":"Observation/337a4abf-0f88-4357-9e5d-a4115b1adfeb"}]},"request":{"method":"PUT","url":"MeasureReport/322e35b8-a1d3-42ba-b034-e98a349617b0"}}]}