{
  "resourceType": "Bundle",
  "id": "6129134a02c62a011f2e6fc1",
  "type": "transaction",
  "entry": [
    {
      "fullUrl": "https://madie.cms.gov/Patient/59615910-f4d7-4bfe-afec-b65bb64922c1",
      "resource": {
        "resourceType": "Patient",
        "id": "59615910-f4d7-4bfe-afec-b65bb64922c1",
        "meta": {
          "profile": [
            "http://hl7.org/fhir/us/qicore/StructureDefinition/qicore-patient"
          ]
        },
        "text": {
          "status": "generated",
          "div": "<div xmlns=\"http://www.w3.org/1999/xhtml\"><div class=\"hapiHeaderText\">CMOdurED_ED&lt;1hrNoObsBFEnc <b>DENEXPASS </b></div><table class=\"hapiPropertyTable\"><tbody><tr><td>Identifier</td><td>b1ace3aec39101033897a24667ae3771863c1a5f7dfec2262d2b4aeb71fb3cfc</td></tr><tr><td>Date of birth</td><td><span>21 August 1994</span></td></tr></tbody></table></div>"
        },
        "extension": [
          {
            "url": "http://hl7.org/fhir/us/core/StructureDefinition/us-core-race",
            "extension": [
              {
                "url": "ombCategory",
                "valueCoding": {
                  "system": "urn:oid:2.16.840.1.113883.6.238",
                  "code": "1002-5",
                  "display": "American Indian or Alaska Native",
                  "userSelected": true
                }
              },
              {
                "url": "text",
                "valueString": "American Indian or Alaska Native"
              }
            ]
          },
          {
            "url": "http://hl7.org/fhir/us/core/StructureDefinition/us-core-ethnicity",
            "extension": [
              {
                "url": "ombCategory",
                "valueCoding": {
                  "system": "urn:oid:2.16.840.1.113883.6.238",
                  "code": "2135-2",
                  "display": "Hispanic or Latino",
                  "userSelected": true
                }
              },
              {
                "url": "text",
                "valueString": "Hispanic or Latino"
              }
            ]
          }
        ],
        "identifier": [
          {
            "type": {
              "coding": [
                {
                  "system": "http://terminology.hl7.org/CodeSystem/v2-0203",
                  "code": "MR"
                }
              ]
            },
            "system": "https://bonnie-fhir.healthit.gov/",
            "value": "6129134a02c62a011f2e6fc1"
          }
        ],
        "active": true,
        "name": [
          {
            "use": "usual",
            "family": "DENEXPass",
            "given": [
              "CMOdurED_ED<1hrNoObsBFEnc"
            ]
          }
        ],
        "gender": "male",
        "birthDate": "1994-08-21"
      },
      "request": {
        "method": "PUT",
        "url": "Patient/59615910-f4d7-4bfe-afec-b65bb64922c1"
      }
    },
    {
      "fullUrl": "https://madie.cms.gov/Encounter/8a22cad0-6ad5-4d68-aaa1-e2a625172442",
      "resource": {
        "resourceType": "Encounter",
        "id": "8a22cad0-6ad5-4d68-aaa1-e2a625172442",
        "meta": {
          "profile": [
            "http://hl7.org/fhir/us/qicore/StructureDefinition/qicore-encounter"
          ]
        },
        "status": "finished",
        "class": {
          "system": "http://terminology.hl7.org/CodeSystem/v3-ActCode",
          "code": "EMER",
          "display": "emergency",
          "userSelected": true
        },
        "type": [
          {
            "coding": [
              {
                "system": "http://snomed.info/sct",
                "code": "4525004"
              }
            ]
          }
        ],
        "subject": {
          "reference": "Patient/59615910-f4d7-4bfe-afec-b65bb64922c1"
        },
        "period": {
          "start": "2025-10-10T10:30:00.000+00:00",
          "end": "2025-10-10T11:30:00.000+00:00"
        },
        "length": {
          "value": 0,
          "unit": "days"
        }
      },
      "request": {
        "method": "PUT",
        "url": "Encounter/8a22cad0-6ad5-4d68-aaa1-e2a625172442"
      }
    },
    {
      "fullUrl": "https://madie.cms.gov/Encounter/567ea9c2-3860-4368-bee7-caa9d6312629",
      "resource": {
        "resourceType": "Encounter",
        "id": "567ea9c2-3860-4368-bee7-caa9d6312629",
        "meta": {
          "profile": [
            "http://hl7.org/fhir/us/qicore/StructureDefinition/qicore-encounter"
          ]
        },
        "status": "finished",
        "class": {
          "system": "http://terminology.hl7.org/CodeSystem/v3-ActCode",
          "code": "IMP",
          "display": "inpatient encounter",
          "userSelected": true
        },
        "type": [
          {
            "coding": [
              {
                "system": "http://snomed.info/sct",
                "code": "32485007"
              }
            ]
          }
        ],
        "subject": {
          "reference": "Patient/59615910-f4d7-4bfe-afec-b65bb64922c1"
        },
        "period": {
          "start": "2025-10-10T11:31:00.000+00:00",
          "end": "2025-10-12T11:30:00.000+00:00"
        },
        "length": {
          "value": 2,
          "unit": "days"
        },
        "diagnosis": [
          {
            "condition": {
              "reference": "Condition/0db594ed-3f9f-4bfd-bb1d-1b030c3303ad"
            },
            "use": {
              "coding": [
                {
                  "system": "http://terminology.hl7.org/CodeSystem/diagnosis-role",
                  "code": "billing",
                  "display": "Billing"
                }
              ]
            },
            "rank": 1
          }
        ]
      },
      "request": {
        "method": "PUT",
        "url": "Encounter/567ea9c2-3860-4368-bee7-caa9d6312629"
      }
    },
    {
      "fullUrl": "https://madie.cms.gov/ServiceRequest/b1994724-92e7-4ac6-9920-360eacb071e7",
      "resource": {
        "resourceType": "ServiceRequest",
        "id": "b1994724-92e7-4ac6-9920-360eacb071e7",
        "meta": {
          "profile": [
            "http://hl7.org/fhir/us/qicore/StructureDefinition/qicore-servicerequest"
          ]
        },
        "status": "active",
        "intent": "order",
        "code": {
          "coding": [
            {
              "system": "http://snomed.info/sct",
              "code": "133918004"
            }
          ]
        },
        "subject": {
          "reference": "Patient/59615910-f4d7-4bfe-afec-b65bb64922c1"
        },
        "authoredOn": "2025-10-10T10:30:00.000+00:00"
      },
      "request": {
        "method": "PUT",
        "url": "ServiceRequest/b1994724-92e7-4ac6-9920-360eacb071e7"
      }
    },
    {
      "fullUrl": "https://madie.cms.gov/Condition/0db594ed-3f9f-4bfd-bb1d-1b030c3303ad",
      "resource": {
        "resourceType": "Condition",
        "id": "0db594ed-3f9f-4bfd-bb1d-1b030c3303ad",
        "meta": {
          "profile": [
            "http://hl7.org/fhir/us/qicore/StructureDefinition/qicore-condition"
          ]
        },
        "clinicalStatus": {
          "coding": [
            {
              "system": "http://terminology.hl7.org/CodeSystem/condition-clinical",
              "code": "active"
            }
          ]
        },
        "verificationStatus": {
          "coding": [
            {
              "system": "http://terminology.hl7.org/CodeSystem/condition-ver-status",
              "code": "confirmed"
            }
          ]
        },
        "category": [
          {
            "coding": [
              {
                "system": "http://terminology.hl7.org/CodeSystem/condition-category",
                "code": "encounter-diagnosis",
                "display": "Encounter Diagnosis"
              }
            ]
          }
        ],
        "code": {
          "coding": [
            {
              "system": "http://snomed.info/sct",
              "version": "2020-09",
              "code": "111297002",
              "display": "Nonparalytic stroke (disorder)",
              "userSelected": true
            }
          ]
        },
        "subject": {
          "reference": "Patient/59615910-f4d7-4bfe-afec-b65bb64922c1"
        },
        "recordedDate": "2025-07-14T08:00:00.000+00:00"
      },
      "request": {
        "method": "PUT",
        "url": "Condition/0db594ed-3f9f-4bfd-bb1d-1b030c3303ad"
      }
    },
    {
      "fullUrl": "https://madie.cms.gov/MeasureReport/8e8e4549-ea48-4afb-8d1d-03ccd7e8c091",
      "resource": {
        "resourceType": "MeasureReport",
        "id": "8e8e4549-ea48-4afb-8d1d-03ccd7e8c091",
        "meta": {
          "profile": [
            "http://hl7.org/fhir/us/cqfmeasures/StructureDefinition/test-case-cqfm"
          ]
        },
        "contained": [
          {
            "resourceType": "Parameters",
            "id": "c7abbdd0-83bf-44a7-9045-2e0dfa32b4a5-parameters",
            "parameter": [
              {
                "name": "subject",
                "valueString": "59615910-f4d7-4bfe-afec-b65bb64922c1"
              }
            ]
          }
        ],
        "extension": [
          {
            "url": "http://hl7.org/fhir/us/cqfmeasures/StructureDefinition/cqfm-inputParameters",
            "valueReference": {
              "reference": "#c7abbdd0-83bf-44a7-9045-2e0dfa32b4a5-parameters"
            }
          },
          {
            "url": "http://hl7.org/fhir/us/cqfmeasures/StructureDefinition/cqfm-testCaseDescription",
            "valueMarkdown": "Patient receives CMO during ED. ED ends 1 minute before inpatient encounter start. No Observation. Testing day of operator with HospitalizationWithObservation function.\n"
          }
        ],
        "modifierExtension": [
          {
            "url": "http://hl7.org/fhir/us/cqfmeasures/StructureDefinition/cqfm-isTestCase",
            "valueBoolean": true
          }
        ],
        "status": "complete",
        "type": "individual",
        "measure": "https://madie.cms.gov/Measure/DischargedonAntithromboticTherapyFHIR",
        "period": {
          "start": "2025-01-01",
          "end": "2025-12-31"
        },
        "group": [
          {
            "population": [
              {
                "code": {
                  "coding": [
                    {
                      "system": "http://terminology.hl7.org/CodeSystem/measure-population",
                      "code": "initial-population",
                      "display": "Initial Population"
                    }
                  ]
                },
                "count": 1
              },
              {
                "code": {
                  "coding": [
                    {
                      "system": "http://terminology.hl7.org/CodeSystem/measure-population",
                      "code": "denominator",
                      "display": "Denominator"
                    }
                  ]
                },
                "count": 1
              },
              {
                "code": {
                  "coding": [
                    {
                      "system": "http://terminology.hl7.org/CodeSystem/measure-population",
                      "code": "denominator-exclusion",
                      "display": "Denominator Exclusion"
                    }
                  ]
                },
                "count": 1
              },
              {
                "code": {
                  "coding": [
                    {
                      "system": "http://terminology.hl7.org/CodeSystem/measure-population",
                      "code": "numerator",
                      "display": "Numerator"
                    }
                  ]
                },
                "count": 0
              },
              {
                "code": {
                  "coding": [
                    {
                      "system": "http://terminology.hl7.org/CodeSystem/measure-population",
                      "code": "denominator-exception",
                      "display": "Denominator Exception"
                    }
                  ]
                },
                "count": 0
              }
            ]
          }
        ],
        "evaluatedResource": [
          {
            "reference": "Patient/59615910-f4d7-4bfe-afec-b65bb64922c1"
          },
          {
            "reference": "Encounter/8a22cad0-6ad5-4d68-aaa1-e2a625172442"
          },
          {
            "reference": "Encounter/567ea9c2-3860-4368-bee7-caa9d6312629"
          },
          {
            "reference": "ServiceRequest/b1994724-92e7-4ac6-9920-360eacb071e7"
          },
          {
            "reference": "Condition/0db594ed-3f9f-4bfd-bb1d-1b030c3303ad"
          }
        ]
      },
      "request": {
        "method": "PUT",
        "url": "MeasureReport/8e8e4549-ea48-4afb-8d1d-03ccd7e8c091"
      }
    }
  ]
}