{
  "resourceType": "Bundle",
  "id": "63594c7a6aee9629c82981df",
  "type": "transaction",
  "entry": [
    {
      "fullUrl": "https://madie.cms.gov/Patient/8c634277-f108-424b-a9e1-9872c6ede751",
      "resource": {
        "resourceType": "Patient",
        "id": "8c634277-f108-424b-a9e1-9872c6ede751",
        "meta": {
          "profile": [
            "http://hl7.org/fhir/us/qicore/StructureDefinition/qicore-patient"
          ]
        },
        "text": {
          "status": "generated",
          "div": "<div xmlns=\"http://www.w3.org/1999/xhtml\"><div class=\"hapiHeaderText\">Risk_LongTermAnticoagulantUse<b>RISKPass </b></div><table class=\"hapiPropertyTable\"><tbody><tr><td>Date of birth</td><td><span>01 February 2004</span></td></tr></tbody></table></div>"
        },
        "extension": [
          {
            "url": "http://hl7.org/fhir/us/core/StructureDefinition/us-core-race",
            "extension": [
              {
                "url": "ombCategory",
                "valueCoding": {
                  "system": "urn:oid:2.16.840.1.113883.6.238",
                  "code": "1002-5",
                  "display": "American Indian or Alaska Native",
                  "userSelected": true
                }
              },
              {
                "url": "text",
                "valueString": "American Indian or Alaska Native"
              }
            ]
          },
          {
            "url": "http://hl7.org/fhir/us/core/StructureDefinition/us-core-ethnicity",
            "extension": [
              {
                "url": "ombCategory",
                "valueCoding": {
                  "system": "urn:oid:2.16.840.1.113883.6.238",
                  "code": "2135-2",
                  "display": "Hispanic or Latino",
                  "userSelected": true
                }
              },
              {
                "url": "text",
                "valueString": "Hispanic or Latino"
              }
            ]
          }
        ],
        "identifier": [
          {
            "type": {
              "coding": [
                {
                  "system": "http://terminology.hl7.org/CodeSystem/v2-0203",
                  "code": "MR"
                }
              ]
            },
            "system": "https://bonnie-fhir.healthit.gov/",
            "value": "63594c7a6aee9629c82981df"
          }
        ],
        "active": true,
        "name": [
          {
            "use": "usual",
            "family": "RiskPass",
            "given": [
              "Risk_LongTermAnticoagulantUse"
            ]
          }
        ],
        "gender": "female",
        "birthDate": "2004-02-01"
      },
      "request": {
        "method": "PUT",
        "url": "Patient/8c634277-f108-424b-a9e1-9872c6ede751"
      }
    },
    {
      "fullUrl": "https://madie.cms.gov/Observation/c20bd9dc-a7e4-4710-b481-6066bbe1b14d",
      "resource": {
        "resourceType": "Observation",
        "id": "c20bd9dc-a7e4-4710-b481-6066bbe1b14d",
        "meta": {
          "profile": [
            "http://hl7.org/fhir/us/qicore/StructureDefinition/qicore-observation"
          ]
        },
        "status": "final",
        "category": [
          {
            "coding": [
              {
                "system": "http://terminology.hl7.org/CodeSystem/observation-category",
                "code": "exam",
                "display": "exam",
                "userSelected": true
              }
            ]
          }
        ],
        "code": {
          "coding": [
            {
              "system": "http://loinc.org",
              "code": "93857-1"
            }
          ]
        },
        "subject": {
          "reference": "Patient/8c634277-f108-424b-a9e1-9872c6ede751"
        },
        "effectiveDateTime": "2024-02-01T08:00:00.000+00:00",
        "valueDateTime": "2024-02-01T08:00:00+00:00"
      },
      "request": {
        "method": "PUT",
        "url": "Observation/c20bd9dc-a7e4-4710-b481-6066bbe1b14d"
      }
    },
    {
      "fullUrl": "https://madie.cms.gov/Observation/7a4b1dfa-b7e2-4ec0-9468-3fc5b45bc7b1",
      "resource": {
        "resourceType": "Observation",
        "id": "7a4b1dfa-b7e2-4ec0-9468-3fc5b45bc7b1",
        "meta": {
          "profile": [
            "http://hl7.org/fhir/us/qicore/StructureDefinition/qicore-observation"
          ]
        },
        "status": "final",
        "category": [
          {
            "coding": [
              {
                "system": "http://terminology.hl7.org/CodeSystem/observation-category",
                "code": "exam",
                "display": "exam",
                "userSelected": true
              }
            ]
          }
        ],
        "code": {
          "coding": [
            {
              "system": "http://loinc.org",
              "code": "11778-8"
            }
          ]
        },
        "subject": {
          "reference": "Patient/8c634277-f108-424b-a9e1-9872c6ede751"
        },
        "effectiveDateTime": "2024-02-01T08:00:00.000+00:00",
        "valueDateTime": "2024-02-01T00:00:00.000+00:00"
      },
      "request": {
        "method": "PUT",
        "url": "Observation/7a4b1dfa-b7e2-4ec0-9468-3fc5b45bc7b1"
      }
    },
    {
      "fullUrl": "https://madie.cms.gov/Encounter/cfb8d2a9-c496-47e5-a69e-58f77771a479",
      "resource": {
        "resourceType": "Encounter",
        "id": "cfb8d2a9-c496-47e5-a69e-58f77771a479",
        "meta": {
          "profile": [
            "http://hl7.org/fhir/us/qicore/StructureDefinition/qicore-encounter"
          ]
        },
        "status": "finished",
        "class": {
          "system": "http://terminology.hl7.org/CodeSystem/v3-ActCode",
          "code": "IMP",
          "display": "inpatient encounter"
        },
        "type": [
          {
            "coding": [
              {
                "system": "http://snomed.info/sct",
                "code": "183452005"
              }
            ]
          }
        ],
        "subject": {
          "reference": "Patient/8c634277-f108-424b-a9e1-9872c6ede751"
        },
        "period": {
          "start": "2024-02-01T08:00:00.000Z",
          "end": "2024-02-05T08:15:00.000Z"
        },
        "diagnosis": [
          {
            "extension": [
              {
                "url": "http://hl7.org/fhir/us/qicore/StructureDefinition/qicore-encounter-diagnosisPresentOnAdmission",
                "valueCodeableConcept": {
                  "coding": [
                    {
                      "system": "https://www.cms.gov/Medicare/Medicare-Fee-for-Service-Payment/HospitalAcqCond/Coding",
                      "code": "Y"
                    }
                  ]
                }
              }
            ],
            "condition": {
              "reference": "Condition/62023124-b5fe-498a-8481-625b21a2aaa1"
            }
          },
          {
            "extension": [
              {
                "url": "http://hl7.org/fhir/us/qicore/StructureDefinition/qicore-encounter-diagnosisPresentOnAdmission",
                "valueCodeableConcept": {
                  "coding": [
                    {
                      "system": "https://www.cms.gov/Medicare/Medicare-Fee-for-Service-Payment/HospitalAcqCond/Coding",
                      "code": "N"
                    }
                  ]
                }
              }
            ],
            "condition": {
              "reference": "Condition/42ac24d2-851a-498d-8e64-e2c00f10094f"
            }
          }
        ]
      },
      "request": {
        "method": "PUT",
        "url": "Encounter/cfb8d2a9-c496-47e5-a69e-58f77771a479"
      }
    },
    {
      "fullUrl": "https://madie.cms.gov/Procedure/5e6c5464-da48-48df-b67d-f98a3fce7357",
      "resource": {
        "resourceType": "Procedure",
        "id": "5e6c5464-da48-48df-b67d-f98a3fce7357",
        "meta": {
          "profile": [
            "http://hl7.org/fhir/us/qicore/StructureDefinition/qicore-procedure"
          ]
        },
        "extension": [
          {
            "url": "http://hl7.org/fhir/us/qicore/StructureDefinition/qicore-recorded",
            "valueDateTime": "2013-04-05T09:35:00-04:00"
          }
        ],
        "status": "completed",
        "code": {
          "coding": [
            {
              "system": "http://snomed.info/sct",
              "code": "10745001"
            }
          ]
        },
        "subject": {
          "reference": "Patient/8c634277-f108-424b-a9e1-9872c6ede751"
        },
        "performedDateTime": "2024-02-01T08:00:00.000+00:00"
      },
      "request": {
        "method": "PUT",
        "url": "Procedure/5e6c5464-da48-48df-b67d-f98a3fce7357"
      }
    },
    {
      "fullUrl": "https://madie.cms.gov/Condition/42ac24d2-851a-498d-8e64-e2c00f10094f",
      "resource": {
        "resourceType": "Condition",
        "id": "42ac24d2-851a-498d-8e64-e2c00f10094f",
        "meta": {
          "profile": [
            "http://hl7.org/fhir/us/qicore/StructureDefinition/qicore-condition"
          ]
        },
        "category": [
          {
            "coding": [
              {
                "system": "http://terminology.hl7.org/CodeSystem/condition-category",
                "code": "encounter-diagnosis",
                "display": "Encounter Diagnosis"
              }
            ]
          }
        ],
        "code": {
          "coding": [
            {
              "system": "http://hl7.org/fhir/sid/icd-10-cm",
              "version": "2023",
              "code": "A32.7",
              "display": "Listerial sepsis",
              "userSelected": true
            }
          ]
        },
        "subject": {
          "reference": "Patient/8c634277-f108-424b-a9e1-9872c6ede751"
        },
        "recordedDate": "2024-10-26T08:00:00.000+00:00"
      },
      "request": {
        "method": "PUT",
        "url": "Condition/42ac24d2-851a-498d-8e64-e2c00f10094f"
      }
    },
    {
      "fullUrl": "https://madie.cms.gov/Condition/62023124-b5fe-498a-8481-625b21a2aaa1",
      "resource": {
        "resourceType": "Condition",
        "id": "62023124-b5fe-498a-8481-625b21a2aaa1",
        "meta": {
          "profile": [
            "http://hl7.org/fhir/us/qicore/StructureDefinition/qicore-condition"
          ]
        },
        "category": [
          {
            "coding": [
              {
                "system": "http://terminology.hl7.org/CodeSystem/condition-category",
                "code": "encounter-diagnosis",
                "display": "Encounter Diagnosis"
              }
            ]
          }
        ],
        "code": {
          "coding": [
            {
              "system": "http://hl7.org/fhir/sid/icd-10-cm",
              "version": "2023",
              "code": "Z79.01",
              "display": "Long Term Anticoagulant Use",
              "userSelected": true
            }
          ]
        },
        "subject": {
          "reference": "Patient/8c634277-f108-424b-a9e1-9872c6ede751"
        },
        "recordedDate": "2024-10-26T08:00:00.000+00:00"
      },
      "request": {
        "method": "PUT",
        "url": "Condition/62023124-b5fe-498a-8481-625b21a2aaa1"
      }
    },
    {
      "fullUrl": "https://madie.cms.gov/MeasureReport/d35c89e9-e021-4890-9380-c216cd94fe85",
      "resource": {
        "resourceType": "MeasureReport",
        "id": "d35c89e9-e021-4890-9380-c216cd94fe85",
        "meta": {
          "profile": [
            "http://hl7.org/fhir/us/cqfmeasures/StructureDefinition/test-case-cqfm"
          ]
        },
        "contained": [
          {
            "resourceType": "Parameters",
            "id": "33bead6a-4a74-46c6-b675-6a1c3a4f5357-parameters",
            "parameter": [
              {
                "name": "subject",
                "valueString": "8c634277-f108-424b-a9e1-9872c6ede751"
              }
            ]
          }
        ],
        "extension": [
          {
            "url": "http://hl7.org/fhir/us/cqfmeasures/StructureDefinition/cqfm-inputParameters",
            "valueReference": {
              "reference": "#33bead6a-4a74-46c6-b675-6a1c3a4f5357-parameters"
            }
          },
          {
            "url": "http://hl7.org/fhir/us/cqfmeasures/StructureDefinition/cqfm-testCaseDescription",
            "valueMarkdown": "Risk variable of long term anticoagulant use"
          }
        ],
        "modifierExtension": [
          {
            "url": "http://hl7.org/fhir/us/cqfmeasures/StructureDefinition/cqfm-isTestCase",
            "valueBoolean": true
          }
        ],
        "status": "complete",
        "type": "individual",
        "measure": "https://madie.cms.gov/Measure/SevereObstetricComplicationsFHIR",
        "period": {
          "start": "2024-01-01",
          "end": "2024-12-31"
        },
        "group": [
          {
            "population": [
              {
                "code": {
                  "coding": [
                    {
                      "system": "http://terminology.hl7.org/CodeSystem/measure-population",
                      "code": "initial-population",
                      "display": "Initial Population"
                    }
                  ]
                },
                "count": 1
              },
              {
                "code": {
                  "coding": [
                    {
                      "system": "http://terminology.hl7.org/CodeSystem/measure-population",
                      "code": "denominator",
                      "display": "Denominator"
                    }
                  ]
                },
                "count": 1
              },
              {
                "code": {
                  "coding": [
                    {
                      "system": "http://terminology.hl7.org/CodeSystem/measure-population",
                      "code": "denominator-exclusion",
                      "display": "Denominator Exclusion"
                    }
                  ]
                },
                "count": 0
              },
              {
                "code": {
                  "coding": [
                    {
                      "system": "http://terminology.hl7.org/CodeSystem/measure-population",
                      "code": "numerator",
                      "display": "Numerator"
                    }
                  ]
                },
                "count": 1
              }
            ]
          }
        ],
        "evaluatedResource": [
          {
            "reference": "Patient/8c634277-f108-424b-a9e1-9872c6ede751"
          },
          {
            "reference": "Observation/c20bd9dc-a7e4-4710-b481-6066bbe1b14d"
          },
          {
            "reference": "Observation/7a4b1dfa-b7e2-4ec0-9468-3fc5b45bc7b1"
          },
          {
            "reference": "Encounter/cfb8d2a9-c496-47e5-a69e-58f77771a479"
          },
          {
            "reference": "Procedure/5e6c5464-da48-48df-b67d-f98a3fce7357"
          },
          {
            "reference": "Condition/42ac24d2-851a-498d-8e64-e2c00f10094f"
          },
          {
            "reference": "Condition/62023124-b5fe-498a-8481-625b21a2aaa1"
          }
        ]
      },
      "request": {
        "method": "PUT",
        "url": "MeasureReport/d35c89e9-e021-4890-9380-c216cd94fe85"
      }
    }
  ]
}