{
  "resourceType": "Bundle",
  "id": "6129135202c62a011f2e73a2",
  "type": "transaction",
  "entry": [
    {
      "fullUrl": "https://madie.cms.gov/Patient/5e894c12-cf46-46a6-a73b-0affc7c0e205",
      "resource": {
        "resourceType": "Patient",
        "id": "5e894c12-cf46-46a6-a73b-0affc7c0e205",
        "meta": {
          "profile": [
            "http://hl7.org/fhir/us/qicore/StructureDefinition/qicore-patient"
          ]
        },
        "text": {
          "status": "generated",
          "div": "<div xmlns=\"http://www.w3.org/1999/xhtml\"><div class=\"hapiHeaderText\">PharmContraDurEncStart_NoEDNoObsBFEnc <b>DENEXCEPPASS </b></div><table class=\"hapiPropertyTable\"><tbody><tr><td>Identifier</td><td>628c16cb856e01c2b8ceb8d682e71bf77cc3847841c023a61cc3ea0e750edfca</td></tr><tr><td>Date of birth</td><td><span>21 August 1994</span></td></tr></tbody></table></div>"
        },
        "extension": [
          {
            "url": "http://hl7.org/fhir/us/core/StructureDefinition/us-core-race",
            "extension": [
              {
                "url": "ombCategory",
                "valueCoding": {
                  "system": "urn:oid:2.16.840.1.113883.6.238",
                  "code": "1002-5",
                  "display": "American Indian or Alaska Native",
                  "userSelected": true
                }
              },
              {
                "url": "text",
                "valueString": "American Indian or Alaska Native"
              }
            ]
          },
          {
            "url": "http://hl7.org/fhir/us/core/StructureDefinition/us-core-ethnicity",
            "extension": [
              {
                "url": "ombCategory",
                "valueCoding": {
                  "system": "urn:oid:2.16.840.1.113883.6.238",
                  "code": "2135-2",
                  "display": "Hispanic or Latino",
                  "userSelected": true
                }
              },
              {
                "url": "text",
                "valueString": "Hispanic or Latino"
              }
            ]
          }
        ],
        "identifier": [
          {
            "type": {
              "coding": [
                {
                  "system": "http://terminology.hl7.org/CodeSystem/v2-0203",
                  "code": "MR"
                }
              ]
            },
            "system": "https://bonnie-fhir.healthit.gov/",
            "value": "6129135202c62a011f2e73a2"
          }
        ],
        "active": true,
        "name": [
          {
            "use": "usual",
            "family": "DENEXCEPPass",
            "given": [
              "PharmContraDurEncStart_NoEDNoObsBFEnc"
            ]
          }
        ],
        "gender": "male",
        "birthDate": "1994-08-21"
      },
      "request": {
        "method": "PUT",
        "url": "Patient/5e894c12-cf46-46a6-a73b-0affc7c0e205"
      }
    },
    {
      "fullUrl": "https://madie.cms.gov/Encounter/1cfa1287-84f2-485f-be01-0367a6ad98de",
      "resource": {
        "resourceType": "Encounter",
        "id": "1cfa1287-84f2-485f-be01-0367a6ad98de",
        "meta": {
          "profile": [
            "http://hl7.org/fhir/us/qicore/StructureDefinition/qicore-encounter"
          ]
        },
        "status": "finished",
        "class": {
          "system": "http://terminology.hl7.org/CodeSystem/v3-ActCode",
          "code": "IMP",
          "display": "inpatient encounter",
          "userSelected": true
        },
        "type": [
          {
            "coding": [
              {
                "system": "http://snomed.info/sct",
                "code": "32485007"
              }
            ]
          }
        ],
        "subject": {
          "reference": "Patient/5e894c12-cf46-46a6-a73b-0affc7c0e205"
        },
        "period": {
          "start": "2025-10-10T09:30:00.000+00:00",
          "end": "2025-10-12T10:30:00.000+00:00"
        },
        "length": {
          "value": 2,
          "unit": "days"
        },
        "diagnosis": [
          {
            "condition": {
              "reference": "Condition/3cde044b-5ac9-499e-9670-02956dc64fed"
            },
            "use": {
              "coding": [
                {
                  "system": "http://terminology.hl7.org/CodeSystem/diagnosis-role",
                  "code": "billing",
                  "display": "Billing"
                }
              ]
            },
            "rank": 1
          }
        ]
      },
      "request": {
        "method": "PUT",
        "url": "Encounter/1cfa1287-84f2-485f-be01-0367a6ad98de"
      }
    },
    {
      "fullUrl": "https://madie.cms.gov/MedicationRequest/17449d4b-2212-470d-b0d0-3cdb8f2fe3fc",
      "resource": {
        "resourceType": "MedicationRequest",
        "id": "17449d4b-2212-470d-b0d0-3cdb8f2fe3fc",
        "meta": {
          "profile": [
            "http://hl7.org/fhir/us/qicore/StructureDefinition/qicore-medicationrequest"
          ]
        },
        "status": "active",
        "intent": "order",
        "category": [
          {
            "coding": [
              {
                "system": "http://terminology.hl7.org/CodeSystem/medicationrequest-category",
                "code": "discharge",
                "display": "Discharge",
                "userSelected": true
              }
            ]
          }
        ],
        "doNotPerform": false,
        "medicationCodeableConcept": {
          "coding": [
            {
              "system": "http://www.nlm.nih.gov/research/umls/rxnorm",
              "code": "855812",
              "display": "prasugrel 10 MG Oral Tablet",
              "userSelected": true
            }
          ]
        },
        "subject": {
          "reference": "Patient/5e894c12-cf46-46a6-a73b-0affc7c0e205"
        },
        "authoredOn": "2025-10-10T09:30:00.000+00:00",
        "requester": {
          "reference": "Practitioner/example"
        }
      },
      "request": {
        "method": "PUT",
        "url": "MedicationRequest/17449d4b-2212-470d-b0d0-3cdb8f2fe3fc"
      }
    },
    {
      "fullUrl": "https://madie.cms.gov/Condition/3cde044b-5ac9-499e-9670-02956dc64fed",
      "resource": {
        "resourceType": "Condition",
        "id": "3cde044b-5ac9-499e-9670-02956dc64fed",
        "meta": {
          "profile": [
            "http://hl7.org/fhir/us/qicore/StructureDefinition/qicore-condition"
          ]
        },
        "clinicalStatus": {
          "coding": [
            {
              "system": "http://terminology.hl7.org/CodeSystem/condition-clinical",
              "code": "active"
            }
          ]
        },
        "verificationStatus": {
          "coding": [
            {
              "system": "http://terminology.hl7.org/CodeSystem/condition-ver-status",
              "code": "confirmed"
            }
          ]
        },
        "category": [
          {
            "coding": [
              {
                "system": "http://terminology.hl7.org/CodeSystem/condition-category",
                "code": "encounter-diagnosis",
                "display": "Encounter Diagnosis"
              }
            ]
          }
        ],
        "code": {
          "coding": [
            {
              "system": "http://snomed.info/sct",
              "version": "2020-09",
              "code": "111297002",
              "display": "Nonparalytic stroke (disorder)",
              "userSelected": true
            }
          ]
        },
        "subject": {
          "reference": "Patient/5e894c12-cf46-46a6-a73b-0affc7c0e205"
        },
        "recordedDate": "2025-07-14T08:00:00.000+00:00"
      },
      "request": {
        "method": "PUT",
        "url": "Condition/3cde044b-5ac9-499e-9670-02956dc64fed"
      }
    },
    {
      "fullUrl": "https://madie.cms.gov/Coverage/21732845-78a7-4762-b50b-2b360815fb87",
      "resource": {
        "resourceType": "Coverage",
        "id": "21732845-78a7-4762-b50b-2b360815fb87",
        "meta": {
          "profile": [
            "http://hl7.org/fhir/us/qicore/StructureDefinition/qicore-coverage"
          ]
        },
        "status": "active",
        "beneficiary": {
          "reference": "Patient/5e894c12-cf46-46a6-a73b-0affc7c0e205"
        },
        "payor": [
          {
            "reference": "Organization/069fbf70-fbf8-4cfe-a5b8-513bbcba2ccb"
          }
        ]
      },
      "request": {
        "method": "PUT",
        "url": "Coverage/21732845-78a7-4762-b50b-2b360815fb87"
      }
    },
    {
      "fullUrl": "https://madie.cms.gov/Organization/069fbf70-fbf8-4cfe-a5b8-513bbcba2ccb",
      "resource": {
        "resourceType": "Organization",
        "id": "069fbf70-fbf8-4cfe-a5b8-513bbcba2ccb",
        "meta": {
          "profile": [
            "http://hl7.org/fhir/us/qicore/StructureDefinition/qicore-organization"
          ]
        },
        "identifier": [
          {
            "use": "temp",
            "system": "urn:oid:2.16.840.1.113883.4.4",
            "value": "21-3259825"
          }
        ],
        "active": true,
        "type": [
          {
            "coding": [
              {
                "system": "http://terminology.hl7.org/CodeSystem/organization-type",
                "code": "pay",
                "display": "Payer"
              }
            ]
          }
        ],
        "name": "Blue Cross Blue Shield of Texas",
        "telecom": [
          {
            "system": "phone",
            "value": "(+1) 972-766-6900"
          }
        ],
        "address": [
          {
            "use": "billing",
            "type": "postal",
            "line": [
              "P.O. Box 660044"
            ],
            "city": "Dallas",
            "state": "TX",
            "postalCode": "75266-0044",
            "country": "USA"
          }
        ]
      },
      "request": {
        "method": "PUT",
        "url": "Organization/069fbf70-fbf8-4cfe-a5b8-513bbcba2ccb"
      }
    },
    {
      "fullUrl": "https://madie.cms.gov/MeasureReport/ab8d09d0-4946-4216-95fa-7a8fc5e83352",
      "resource": {
        "resourceType": "MeasureReport",
        "id": "ab8d09d0-4946-4216-95fa-7a8fc5e83352",
        "meta": {
          "profile": [
            "http://hl7.org/fhir/us/cqfmeasures/StructureDefinition/test-case-cqfm"
          ]
        },
        "contained": [
          {
            "resourceType": "Parameters",
            "id": "2e6e02fa-40ec-4b50-a7f2-e8e5168275ca-parameters",
            "parameter": [
              {
                "name": "subject",
                "valueString": "5e894c12-cf46-46a6-a73b-0affc7c0e205"
              }
            ]
          }
        ],
        "extension": [
          {
            "url": "http://hl7.org/fhir/us/cqfmeasures/StructureDefinition/cqfm-inputParameters",
            "valueReference": {
              "reference": "#2e6e02fa-40ec-4b50-a7f2-e8e5168275ca-parameters"
            }
          },
          {
            "url": "http://hl7.org/fhir/us/cqfmeasures/StructureDefinition/cqfm-testCaseDescription",
            "valueMarkdown": "Patient receives Ticagrelor during inpatient encounter. No ED. No Observation. Testing medication data type for HospitalizationWithObservation function. See CMO test cases since timing is the same."
          }
        ],
        "modifierExtension": [
          {
            "url": "http://hl7.org/fhir/us/cqfmeasures/StructureDefinition/cqfm-isTestCase",
            "valueBoolean": true
          }
        ],
        "status": "complete",
        "type": "individual",
        "measure": "https://madie.cms.gov/Measure/DischargedonAntithromboticTherapyFHIR",
        "period": {
          "start": "2025-01-01",
          "end": "2025-12-31"
        },
        "group": [
          {
            "population": [
              {
                "code": {
                  "coding": [
                    {
                      "system": "http://terminology.hl7.org/CodeSystem/measure-population",
                      "code": "initial-population",
                      "display": "Initial Population"
                    }
                  ]
                },
                "count": 1
              },
              {
                "code": {
                  "coding": [
                    {
                      "system": "http://terminology.hl7.org/CodeSystem/measure-population",
                      "code": "denominator",
                      "display": "Denominator"
                    }
                  ]
                },
                "count": 1
              },
              {
                "code": {
                  "coding": [
                    {
                      "system": "http://terminology.hl7.org/CodeSystem/measure-population",
                      "code": "denominator-exclusion",
                      "display": "Denominator Exclusion"
                    }
                  ]
                },
                "count": 0
              },
              {
                "code": {
                  "coding": [
                    {
                      "system": "http://terminology.hl7.org/CodeSystem/measure-population",
                      "code": "numerator",
                      "display": "Numerator"
                    }
                  ]
                },
                "count": 0
              },
              {
                "code": {
                  "coding": [
                    {
                      "system": "http://terminology.hl7.org/CodeSystem/measure-population",
                      "code": "denominator-exception",
                      "display": "Denominator Exception"
                    }
                  ]
                },
                "count": 1
              }
            ]
          }
        ],
        "evaluatedResource": [
          {
            "reference": "Patient/5e894c12-cf46-46a6-a73b-0affc7c0e205"
          },
          {
            "reference": "Encounter/1cfa1287-84f2-485f-be01-0367a6ad98de"
          },
          {
            "reference": "MedicationRequest/17449d4b-2212-470d-b0d0-3cdb8f2fe3fc"
          },
          {
            "reference": "Condition/3cde044b-5ac9-499e-9670-02956dc64fed"
          },
          {
            "reference": "Coverage/21732845-78a7-4762-b50b-2b360815fb87"
          },
          {
            "reference": "Organization/069fbf70-fbf8-4cfe-a5b8-513bbcba2ccb"
          }
        ]
      },
      "request": {
        "method": "PUT",
        "url": "MeasureReport/ab8d09d0-4946-4216-95fa-7a8fc5e83352"
      }
    }
  ]
}