{
  "resourceType": "Bundle",
  "id": "633b3f9f0968f80122503cdb",
  "type": "transaction",
  "entry": [
    {
      "fullUrl": "https://madie.cms.gov/Patient/815d135c-0ab9-4ae4-b747-63e443985ae8",
      "resource": {
        "resourceType": "Patient",
        "id": "815d135c-0ab9-4ae4-b747-63e443985ae8",
        "meta": {
          "profile": [
            "http://hl7.org/fhir/us/qicore/StructureDefinition/qicore-patient"
          ]
        },
        "text": {
          "status": "generated",
          "div": "<div xmlns=\"http://www.w3.org/1999/xhtml\"><div class=\"hapiHeaderText\">BloodTransfusionRelvDtTime1MinB4MidnightDayOfEncEnd <b>NUMPass </b></div><table class=\"hapiPropertyTable\"><tbody><tr><td>Date of birth</td><td><span>01 February 2004</span></td></tr></tbody></table></div>"
        },
        "extension": [
          {
            "url": "http://hl7.org/fhir/us/core/StructureDefinition/us-core-race",
            "extension": [
              {
                "url": "ombCategory",
                "valueCoding": {
                  "system": "urn:oid:2.16.840.1.113883.6.238",
                  "code": "1002-5",
                  "display": "American Indian or Alaska Native",
                  "userSelected": true
                }
              },
              {
                "url": "text",
                "valueString": "American Indian or Alaska Native"
              }
            ]
          },
          {
            "url": "http://hl7.org/fhir/us/core/StructureDefinition/us-core-ethnicity",
            "extension": [
              {
                "url": "ombCategory",
                "valueCoding": {
                  "system": "urn:oid:2.16.840.1.113883.6.238",
                  "code": "2135-2",
                  "display": "Hispanic or Latino",
                  "userSelected": true
                }
              },
              {
                "url": "text",
                "valueString": "Hispanic or Latino"
              }
            ]
          }
        ],
        "identifier": [
          {
            "type": {
              "coding": [
                {
                  "system": "http://terminology.hl7.org/CodeSystem/v2-0203",
                  "code": "MR"
                }
              ]
            },
            "system": "https://bonnie-fhir.healthit.gov/",
            "value": "633b3f9f0968f80122503cdb"
          }
        ],
        "active": true,
        "name": [
          {
            "use": "usual",
            "family": "NUMPass",
            "given": [
              "BloodTransfusionRelvDtTime1MinB4MidnightDayOfEncEnd"
            ]
          }
        ],
        "gender": "female",
        "birthDate": "2004-02-01"
      },
      "request": {
        "method": "PUT",
        "url": "Patient/815d135c-0ab9-4ae4-b747-63e443985ae8"
      }
    },
    {
      "fullUrl": "https://madie.cms.gov/Observation/bfcccac3-7ef8-4d9d-ab3a-16a5d42dddcc",
      "resource": {
        "resourceType": "Observation",
        "id": "bfcccac3-7ef8-4d9d-ab3a-16a5d42dddcc",
        "meta": {
          "profile": [
            "http://hl7.org/fhir/us/qicore/StructureDefinition/qicore-observation"
          ]
        },
        "status": "final",
        "category": [
          {
            "coding": [
              {
                "system": "http://terminology.hl7.org/CodeSystem/observation-category",
                "code": "exam",
                "display": "exam",
                "userSelected": true
              }
            ]
          }
        ],
        "code": {
          "coding": [
            {
              "system": "http://loinc.org",
              "code": "93857-1"
            }
          ]
        },
        "subject": {
          "reference": "Patient/815d135c-0ab9-4ae4-b747-63e443985ae8"
        },
        "effectiveDateTime": "2024-02-01T08:00:00.000+00:00",
        "valueDateTime": "2024-02-01T08:00:00+00:00"
      },
      "request": {
        "method": "PUT",
        "url": "Observation/bfcccac3-7ef8-4d9d-ab3a-16a5d42dddcc"
      }
    },
    {
      "fullUrl": "https://madie.cms.gov/Observation/f41e734b-12f5-4107-ba56-03ac7553b8f3",
      "resource": {
        "resourceType": "Observation",
        "id": "f41e734b-12f5-4107-ba56-03ac7553b8f3",
        "meta": {
          "profile": [
            "http://hl7.org/fhir/us/qicore/StructureDefinition/qicore-observation"
          ]
        },
        "status": "final",
        "category": [
          {
            "coding": [
              {
                "system": "http://terminology.hl7.org/CodeSystem/observation-category",
                "code": "exam",
                "display": "exam",
                "userSelected": true
              }
            ]
          }
        ],
        "code": {
          "coding": [
            {
              "system": "http://loinc.org",
              "code": "11884-4"
            }
          ]
        },
        "subject": {
          "reference": "Patient/815d135c-0ab9-4ae4-b747-63e443985ae8"
        },
        "effectiveDateTime": "2024-02-01T08:00:00.000+00:00",
        "valueQuantity": {
          "value": 20,
          "system": "http://unitsofmeasure.org",
          "code": "wk"
        }
      },
      "request": {
        "method": "PUT",
        "url": "Observation/f41e734b-12f5-4107-ba56-03ac7553b8f3"
      }
    },
    {
      "fullUrl": "https://madie.cms.gov/Observation/8593bbc4-d649-41dd-bc10-b0772ff6a6c5",
      "resource": {
        "resourceType": "Observation",
        "id": "8593bbc4-d649-41dd-bc10-b0772ff6a6c5",
        "meta": {
          "profile": [
            "http://hl7.org/fhir/us/qicore/StructureDefinition/qicore-observation"
          ]
        },
        "status": "final",
        "category": [
          {
            "coding": [
              {
                "system": "http://terminology.hl7.org/CodeSystem/observation-category",
                "code": "exam",
                "display": "exam",
                "userSelected": true
              }
            ]
          }
        ],
        "code": {
          "coding": [
            {
              "system": "http://loinc.org",
              "code": "11884-4"
            }
          ]
        },
        "subject": {
          "reference": "Patient/815d135c-0ab9-4ae4-b747-63e443985ae8"
        },
        "effectiveDateTime": "2024-02-01T08:01:00.000+00:00"
      },
      "request": {
        "method": "PUT",
        "url": "Observation/8593bbc4-d649-41dd-bc10-b0772ff6a6c5"
      }
    },
    {
      "fullUrl": "https://madie.cms.gov/Encounter/5f509d92-0ac0-4130-bc65-5a8218cc93e9",
      "resource": {
        "resourceType": "Encounter",
        "id": "5f509d92-0ac0-4130-bc65-5a8218cc93e9",
        "meta": {
          "profile": [
            "http://hl7.org/fhir/us/qicore/StructureDefinition/qicore-encounter"
          ]
        },
        "status": "finished",
        "class": {
          "system": "http://terminology.hl7.org/CodeSystem/v3-ActCode",
          "code": "IMP",
          "display": "inpatient encounter"
        },
        "type": [
          {
            "coding": [
              {
                "system": "http://snomed.info/sct",
                "code": "183452005"
              }
            ]
          }
        ],
        "subject": {
          "reference": "Patient/815d135c-0ab9-4ae4-b747-63e443985ae8"
        },
        "period": {
          "start": "2024-02-01T08:00:00.000Z",
          "end": "2024-02-05T08:15:00.000Z"
        }
      },
      "request": {
        "method": "PUT",
        "url": "Encounter/5f509d92-0ac0-4130-bc65-5a8218cc93e9"
      }
    },
    {
      "fullUrl": "https://madie.cms.gov/Coverage/d9457f7b-47d4-4392-84bd-911c729c0251",
      "resource": {
        "resourceType": "Coverage",
        "id": "d9457f7b-47d4-4392-84bd-911c729c0251",
        "status": "active",
        "beneficiary": {
          "reference": "Patient/815d135c-0ab9-4ae4-b747-63e443985ae8"
        },
        "period": {
          "start": "2004-02-01T08:00:00.000Z"
        },
        "payor": [
          {
            "reference": "Organization/9cccfbe4-0281-4e0a-bb34-795c46b05b6b"
          }
        ]
      },
      "request": {
        "method": "PUT",
        "url": "Coverage/d9457f7b-47d4-4392-84bd-911c729c0251"
      }
    },
    {
      "fullUrl": "https://madie.cms.gov/Procedure/858f8529-c43d-4ae1-8066-8d89a50cb6e3",
      "resource": {
        "resourceType": "Procedure",
        "id": "858f8529-c43d-4ae1-8066-8d89a50cb6e3",
        "meta": {
          "profile": [
            "http://hl7.org/fhir/us/qicore/StructureDefinition/qicore-procedure"
          ]
        },
        "extension": [
          {
            "url": "http://hl7.org/fhir/us/qicore/StructureDefinition/qicore-recorded",
            "valueDateTime": "2013-04-05T09:35:00-04:00"
          }
        ],
        "status": "completed",
        "code": {
          "coding": [
            {
              "system": "http://snomed.info/sct",
              "code": "10745001"
            }
          ]
        },
        "subject": {
          "reference": "Patient/815d135c-0ab9-4ae4-b747-63e443985ae8"
        },
        "performedPeriod": {
          "start": "2024-02-01T08:00:00.000Z",
          "end": "2024-02-05T08:15:00.000Z"
        }
      },
      "request": {
        "method": "PUT",
        "url": "Procedure/858f8529-c43d-4ae1-8066-8d89a50cb6e3"
      }
    },
    {
      "fullUrl": "https://madie.cms.gov/Procedure/5bc614c3-e121-42f8-a17f-929179c515f0",
      "resource": {
        "resourceType": "Procedure",
        "id": "5bc614c3-e121-42f8-a17f-929179c515f0",
        "meta": {
          "profile": [
            "http://hl7.org/fhir/us/qicore/StructureDefinition/qicore-procedure"
          ]
        },
        "extension": [
          {
            "url": "http://hl7.org/fhir/us/qicore/StructureDefinition/qicore-recorded",
            "valueDateTime": "2024-02-01T00:01:00-04:00"
          }
        ],
        "status": "completed",
        "code": {
          "coding": [
            {
              "system": "http://snomed.info/sct",
              "code": "11397000"
            }
          ]
        },
        "subject": {
          "reference": "Patient/815d135c-0ab9-4ae4-b747-63e443985ae8"
        },
        "performedPeriod": {
          "start": "2024-02-05T11:59:00.000Z",
          "end": "2024-02-05T11:59:00.000Z"
        }
      },
      "request": {
        "method": "PUT",
        "url": "Procedure/5bc614c3-e121-42f8-a17f-929179c515f0"
      }
    },
    {
      "fullUrl": "https://madie.cms.gov/Organization/9cccfbe4-0281-4e0a-bb34-795c46b05b6b",
      "resource": {
        "resourceType": "Organization",
        "id": "9cccfbe4-0281-4e0a-bb34-795c46b05b6b",
        "meta": {
          "profile": [
            "http://hl7.org/fhir/us/qicore/StructureDefinition/qicore-organization"
          ]
        },
        "identifier": [
          {
            "use": "temp",
            "system": "urn:oid:2.16.840.1.113883.4.4",
            "value": "21-3259825"
          }
        ],
        "active": true,
        "type": [
          {
            "coding": [
              {
                "system": "http://terminology.hl7.org/CodeSystem/organization-type",
                "code": "pay",
                "display": "Payer"
              }
            ]
          }
        ],
        "name": "Blue Cross Blue Shield of Texas",
        "telecom": [
          {
            "system": "phone",
            "value": "(+1) 972-766-6900"
          }
        ],
        "address": [
          {
            "use": "billing",
            "type": "postal",
            "line": [
              "P.O. Box 660044"
            ],
            "city": "Dallas",
            "state": "TX",
            "postalCode": "75266-0044",
            "country": "USA"
          }
        ]
      },
      "request": {
        "method": "PUT",
        "url": "Organization/9cccfbe4-0281-4e0a-bb34-795c46b05b6b"
      }
    },
    {
      "fullUrl": "https://madie.cms.gov/Practitioner/14702c9a-82f1-493d-8e53-86f0277e19bd",
      "resource": {
        "resourceType": "Practitioner",
        "id": "14702c9a-82f1-493d-8e53-86f0277e19bd",
        "identifier": [
          {
            "system": "http://hl7.org/fhir/sid/us-npi",
            "value": "123456"
          }
        ],
        "name": [
          {
            "family": "Evil",
            "prefix": [
              "Dr"
            ]
          }
        ]
      },
      "request": {
        "method": "PUT",
        "url": "Practitioner/14702c9a-82f1-493d-8e53-86f0277e19bd"
      }
    },
    {
      "fullUrl": "https://madie.cms.gov/MeasureReport/662f74e4-ca0c-41f9-9246-ef98c1054ef7",
      "resource": {
        "resourceType": "MeasureReport",
        "id": "662f74e4-ca0c-41f9-9246-ef98c1054ef7",
        "meta": {
          "profile": [
            "http://hl7.org/fhir/us/cqfmeasures/StructureDefinition/test-case-cqfm"
          ]
        },
        "contained": [
          {
            "resourceType": "Parameters",
            "id": "3645ed66-9317-4fd0-b6c8-fb0dd45c9129-parameters",
            "parameter": [
              {
                "name": "subject",
                "valueString": "815d135c-0ab9-4ae4-b747-63e443985ae8"
              }
            ]
          }
        ],
        "extension": [
          {
            "url": "http://hl7.org/fhir/us/cqfmeasures/StructureDefinition/cqfm-inputParameters",
            "valueReference": {
              "reference": "#3645ed66-9317-4fd0-b6c8-fb0dd45c9129-parameters"
            }
          },
          {
            "url": "http://hl7.org/fhir/us/cqfmeasures/StructureDefinition/cqfm-testCaseDescription",
            "valueMarkdown": "Blood Transfusion Relevant Date Time 1 Minute before midnight day of encounter end\n"
          }
        ],
        "modifierExtension": [
          {
            "url": "http://hl7.org/fhir/us/cqfmeasures/StructureDefinition/cqfm-isTestCase",
            "valueBoolean": true
          }
        ],
        "status": "complete",
        "type": "individual",
        "measure": "https://madie.cms.gov/Measure/SevereObstetricComplicationsFHIR",
        "period": {
          "start": "2024-01-01",
          "end": "2024-12-31"
        },
        "group": [
          {
            "population": [
              {
                "code": {
                  "coding": [
                    {
                      "system": "http://terminology.hl7.org/CodeSystem/measure-population",
                      "code": "initial-population",
                      "display": "Initial Population"
                    }
                  ]
                },
                "count": 1
              },
              {
                "code": {
                  "coding": [
                    {
                      "system": "http://terminology.hl7.org/CodeSystem/measure-population",
                      "code": "denominator",
                      "display": "Denominator"
                    }
                  ]
                },
                "count": 1
              },
              {
                "code": {
                  "coding": [
                    {
                      "system": "http://terminology.hl7.org/CodeSystem/measure-population",
                      "code": "denominator-exclusion",
                      "display": "Denominator Exclusion"
                    }
                  ]
                },
                "count": 0
              },
              {
                "code": {
                  "coding": [
                    {
                      "system": "http://terminology.hl7.org/CodeSystem/measure-population",
                      "code": "numerator",
                      "display": "Numerator"
                    }
                  ]
                },
                "count": 1
              }
            ]
          }
        ],
        "evaluatedResource": [
          {
            "reference": "Patient/815d135c-0ab9-4ae4-b747-63e443985ae8"
          },
          {
            "reference": "Observation/bfcccac3-7ef8-4d9d-ab3a-16a5d42dddcc"
          },
          {
            "reference": "Observation/f41e734b-12f5-4107-ba56-03ac7553b8f3"
          },
          {
            "reference": "Observation/8593bbc4-d649-41dd-bc10-b0772ff6a6c5"
          },
          {
            "reference": "Encounter/5f509d92-0ac0-4130-bc65-5a8218cc93e9"
          },
          {
            "reference": "Coverage/d9457f7b-47d4-4392-84bd-911c729c0251"
          },
          {
            "reference": "Procedure/858f8529-c43d-4ae1-8066-8d89a50cb6e3"
          },
          {
            "reference": "Procedure/5bc614c3-e121-42f8-a17f-929179c515f0"
          },
          {
            "reference": "Organization/9cccfbe4-0281-4e0a-bb34-795c46b05b6b"
          },
          {
            "reference": "Practitioner/14702c9a-82f1-493d-8e53-86f0277e19bd"
          }
        ]
      },
      "request": {
        "method": "PUT",
        "url": "MeasureReport/662f74e4-ca0c-41f9-9246-ef98c1054ef7"
      }
    }
  ]
}