{
  "resourceType": "Bundle",
  "id": "IPPass-20yrsWithOralEvalEncDec31OfMP",
  "type": "transaction",
  "entry": [
    {
      "fullUrl": "https://madie.cms.gov/Patient/e01f620c-3614-4ade-85b6-f81f214066c8",
      "resource": {
        "resourceType": "Patient",
        "id": "e01f620c-3614-4ade-85b6-f81f214066c8",
        "meta": {
          "profile": [
            "http://hl7.org/fhir/us/qicore/StructureDefinition/qicore-patient"
          ]
        },
        "extension": [
          {
            "url": "http://hl7.org/fhir/us/core/StructureDefinition/us-core-race",
            "extension": [
              {
                "url": "ombCategory",
                "valueCoding": {
                  "system": "urn:oid:2.16.840.1.113883.6.238",
                  "code": "2028-9",
                  "display": "Asian"
                }
              },
              {
                "url": "text",
                "valueString": "Asian"
              }
            ]
          },
          {
            "url": "http://hl7.org/fhir/us/core/StructureDefinition/us-core-ethnicity",
            "extension": [
              {
                "url": "ombCategory",
                "valueCoding": {
                  "system": "urn:oid:2.16.840.1.113883.6.238",
                  "code": "2135-2",
                  "display": "Hispanic or Latino"
                }
              },
              {
                "url": "text",
                "valueString": "Hispanic or Latino"
              }
            ]
          }
        ],
        "identifier": [
          {
            "system": "http://hospital.smarthealthit.org",
            "value": "999999995"
          }
        ],
        "name": [
          {
            "family": "Bertha",
            "given": [
              "Betty"
            ]
          }
        ],
        "gender": "female",
        "birthDate": "2005-01-01"
      },
      "request": {
        "method": "PUT",
        "url": "Patient/e01f620c-3614-4ade-85b6-f81f214066c8"
      }
    },
    {
      "fullUrl": "https://madie.cms.gov/Encounter/74cec908-aaf2-447d-928c-e19575c5e3cb",
      "resource": {
        "resourceType": "Encounter",
        "id": "74cec908-aaf2-447d-928c-e19575c5e3cb",
        "meta": {
          "profile": [
            "http://hl7.org/fhir/us/qicore/StructureDefinition/qicore-encounter"
          ]
        },
        "status": "finished",
        "class": {
          "system": "http://terminology.hl7.org/CodeSystem/v3-ActCode",
          "code": "AMB",
          "display": "ambulatory"
        },
        "type": [
          {
            "coding": [
              {
                "system": "http://www.ada.org/cdt",
                "code": "D0120",
                "display": "periodic oral evaluation - established patient"
              }
            ]
          }
        ],
        "subject": {
          "reference": "Patient/e01f620c-3614-4ade-85b6-f81f214066c8"
        },
        "period": {
          "start": "2025-12-31T00:00:00.000Z",
          "end": "2025-12-31T01:15:00.000Z"
        }
      },
      "request": {
        "method": "PUT",
        "url": "Encounter/74cec908-aaf2-447d-928c-e19575c5e3cb"
      }
    },
    {
      "fullUrl": "https://madie.cms.gov/MeasureReport/470e93b9-542f-4223-ba09-bfe469be1486",
      "resource": {
        "resourceType": "MeasureReport",
        "id": "470e93b9-542f-4223-ba09-bfe469be1486",
        "meta": {
          "profile": [
            "http://hl7.org/fhir/us/cqfmeasures/StructureDefinition/test-case-cqfm"
          ]
        },
        "contained": [
          {
            "resourceType": "Parameters",
            "id": "fecc3d7a-b63c-434c-8d9b-b9bae698d16d-parameters",
            "parameter": [
              {
                "name": "subject",
                "valueString": "e01f620c-3614-4ade-85b6-f81f214066c8"
              }
            ]
          }
        ],
        "extension": [
          {
            "url": "http://hl7.org/fhir/us/cqfmeasures/StructureDefinition/cqfm-inputParameters",
            "valueReference": {
              "reference": "#fecc3d7a-b63c-434c-8d9b-b9bae698d16d-parameters"
            }
          },
          {
            "url": "http://hl7.org/fhir/us/cqfmeasures/StructureDefinition/cqfm-testCaseDescription",
            "valueMarkdown": "Patient 20yo w/ an Oral Evaluation Encounter 12/31 of the Measurement Period."
          }
        ],
        "modifierExtension": [
          {
            "url": "http://hl7.org/fhir/us/cqfmeasures/StructureDefinition/cqfm-isTestCase",
            "valueBoolean": true
          }
        ],
        "status": "complete",
        "type": "individual",
        "measure": "https://madie.cms.gov/Measure/PrimaryCariesPreventionasOfferedbyDentistsFHIR",
        "period": {
          "start": "2025-01-01",
          "end": "2025-12-31"
        },
        "group": [
          {
            "population": [
              {
                "code": {
                  "coding": [
                    {
                      "system": "http://terminology.hl7.org/CodeSystem/measure-population",
                      "code": "initial-population",
                      "display": "Initial Population"
                    }
                  ]
                },
                "count": 1
              },
              {
                "code": {
                  "coding": [
                    {
                      "system": "http://terminology.hl7.org/CodeSystem/measure-population",
                      "code": "denominator",
                      "display": "Denominator"
                    }
                  ]
                },
                "count": 1
              },
              {
                "code": {
                  "coding": [
                    {
                      "system": "http://terminology.hl7.org/CodeSystem/measure-population",
                      "code": "denominator-exclusion",
                      "display": "Denominator Exclusion"
                    }
                  ]
                },
                "count": 0
              },
              {
                "code": {
                  "coding": [
                    {
                      "system": "http://terminology.hl7.org/CodeSystem/measure-population",
                      "code": "numerator",
                      "display": "Numerator"
                    }
                  ]
                },
                "count": 0
              }
            ]
          }
        ],
        "evaluatedResource": [
          {
            "reference": "Patient/e01f620c-3614-4ade-85b6-f81f214066c8"
          },
          {
            "reference": "Encounter/74cec908-aaf2-447d-928c-e19575c5e3cb"
          }
        ]
      },
      "request": {
        "method": "PUT",
        "url": "MeasureReport/470e93b9-542f-4223-ba09-bfe469be1486"
      }
    }
  ]
}