{"resourceType":"Bundle","id":"tests-94300728-c5ff-4ee9-a4cc-717ae5d33518-bundle","type":"transaction","entry":[{"fullUrl":"https://madie.cms.gov/Patient/94300728-c5ff-4ee9-a4cc-717ae5d33518","resource":{"resourceType":"Patient","id":"94300728-c5ff-4ee9-a4cc-717ae5d33518","meta":{"profile":["http://hl7.org/fhir/us/qicore/StructureDefinition/qicore-patient"]},"text":{"status":"generated","div":"<div xmlns=\"http://www.w3.org/1999/xhtml\"><div class=\"hapiHeaderText\"> CMOdurEnc_ED=1hrNoObsBFEnc <b>DENEXPASS </b></div><table class=\"hapiPropertyTable\"><tbody><tr><td>Identifier</td><td>4e1a5626cff3e4a56f143ab3c086f2d1</td></tr><tr><td>Date of birth</td><td><span>21 August 1994</span></td></tr></tbody></table></div>"},"extension":[{"url":"http://hl7.org/fhir/us/core/StructureDefinition/us-core-race","extension":[{"url":"ombCategory","valueCoding":{"system":"urn:oid:2.16.840.1.113883.6.238","code":"1002-5","display":"American Indian or Alaska Native","userSelected":true}},{"url":"text","valueString":"American Indian or Alaska Native"}]},{"url":"http://hl7.org/fhir/us/core/StructureDefinition/us-core-ethnicity","extension":[{"url":"ombCategory","valueCoding":{"system":"urn:oid:2.16.840.1.113883.6.238","code":"2135-2","display":"Hispanic or Latino","userSelected":true}},{"url":"text","valueString":"Hispanic or Latino"}]}],"identifier":[{"type":{"coding":[{"system":"http://terminology.hl7.org/CodeSystem/v2-0203","code":"MR"}]},"system":"https://bonnie-fhir.healthit.gov/","value":"6129132f02c62a011f2e63de"}],"active":true,"name":[{"use":"usual","family":"DENEXPass","given":["CMOdurEnc_ED=1hrNoObsBFEnc"]}],"gender":"male","birthDate":"1994-08-21"},"request":{"method":"PUT","url":"Patient/94300728-c5ff-4ee9-a4cc-717ae5d33518"}},{"fullUrl":"https://madie.cms.gov/Encounter/6b3c835b-cae2-4d7b-b063-f459dccec379","resource":{"resourceType":"Encounter","id":"6b3c835b-cae2-4d7b-b063-f459dccec379","meta":{"profile":["http://hl7.org/fhir/us/qicore/StructureDefinition/qicore-encounter"]},"status":"finished","class":{"system":"http://terminology.hl7.org/CodeSystem/v3-ActCode","code":"EMER","display":"emergency","userSelected":true},"type":[{"coding":[{"system":"http://snomed.info/sct","code":"4525004"}]}],"subject":{"reference":"Patient/94300728-c5ff-4ee9-a4cc-717ae5d33518"},"period":{"start":"2025-10-10T10:30:00.000+00:00","end":"2025-10-10T11:30:00.000+00:00"},"length":{"value":0,"unit":"days"}},"request":{"method":"PUT","url":"Encounter/6b3c835b-cae2-4d7b-b063-f459dccec379"}},{"fullUrl":"https://madie.cms.gov/Encounter/f66524f5-d227-4b88-a950-2ccb16e1a2f0","resource":{"resourceType":"Encounter","id":"f66524f5-d227-4b88-a950-2ccb16e1a2f0","meta":{"profile":["http://hl7.org/fhir/us/qicore/StructureDefinition/qicore-encounter"]},"status":"finished","class":{"system":"http://terminology.hl7.org/CodeSystem/v3-ActCode","code":"IMP","display":"inpatient encounter","userSelected":true},"type":[{"coding":[{"system":"http://snomed.info/sct","code":"32485007"}]}],"subject":{"reference":"Patient/94300728-c5ff-4ee9-a4cc-717ae5d33518"},"period":{"start":"2025-10-10T12:30:00.000+00:00","end":"2025-10-12T11:30:00.000+00:00"},"length":{"value":2,"unit":"days"},"diagnosis":[{"condition":{"reference":"Condition/1054b0df-b83e-414c-8e13-1c17b5dbd0f1"},"use":{"coding":[{"system":"http://terminology.hl7.org/CodeSystem/diagnosis-role","code":"billing","display":"Billing"}]},"rank":1}]},"request":{"method":"PUT","url":"Encounter/f66524f5-d227-4b88-a950-2ccb16e1a2f0"}},{"fullUrl":"https://madie.cms.gov/ServiceRequest/c4777b75-44f9-40cd-8f0f-c5136ed7a6b7","resource":{"resourceType":"ServiceRequest","id":"c4777b75-44f9-40cd-8f0f-c5136ed7a6b7","meta":{"profile":["http://hl7.org/fhir/us/qicore/StructureDefinition/qicore-servicerequest"]},"status":"active","intent":"order","code":{"coding":[{"system":"http://snomed.info/sct","code":"133918004"}]},"subject":{"reference":"Patient/94300728-c5ff-4ee9-a4cc-717ae5d33518"},"authoredOn":"2025-10-10T12:31:00.000+00:00"},"request":{"method":"PUT","url":"ServiceRequest/c4777b75-44f9-40cd-8f0f-c5136ed7a6b7"}},{"fullUrl":"https://madie.cms.gov/Condition/1054b0df-b83e-414c-8e13-1c17b5dbd0f1","resource":{"resourceType":"Condition","id":"1054b0df-b83e-414c-8e13-1c17b5dbd0f1","meta":{"profile":["http://hl7.org/fhir/us/qicore/StructureDefinition/qicore-condition"]},"clinicalStatus":{"coding":[{"system":"http://terminology.hl7.org/CodeSystem/condition-clinical","code":"active"}]},"verificationStatus":{"coding":[{"system":"http://terminology.hl7.org/CodeSystem/condition-ver-status","code":"confirmed"}]},"category":[{"coding":[{"system":"http://terminology.hl7.org/CodeSystem/condition-category","code":"encounter-diagnosis","display":"Encounter Diagnosis"}]}],"code":{"coding":[{"system":"http://snomed.info/sct","version":"2020-09","code":"111297002","display":"Nonparalytic stroke (disorder)","userSelected":true}]},"subject":{"reference":"Patient/94300728-c5ff-4ee9-a4cc-717ae5d33518"},"recordedDate":"2025-07-14T08:00:00.000+00:00"},"request":{"method":"PUT","url":"Condition/1054b0df-b83e-414c-8e13-1c17b5dbd0f1"}},{"fullUrl":"https://madie.cms.gov/Coverage/8175b239-ee87-4b07-872e-f7cbaf54321c","resource":{"resourceType":"Coverage","id":"8175b239-ee87-4b07-872e-f7cbaf54321c","meta":{"profile":["http://hl7.org/fhir/us/qicore/StructureDefinition/qicore-coverage"]},"status":"active","beneficiary":{"reference":"Patient/94300728-c5ff-4ee9-a4cc-717ae5d33518"},"payor":[{"reference":"Organization/c95435d6-86e2-4ab8-91da-e3d4176c8a61"}]},"request":{"method":"PUT","url":"Coverage/8175b239-ee87-4b07-872e-f7cbaf54321c"}},{"fullUrl":"https://madie.cms.gov/Organization/c95435d6-86e2-4ab8-91da-e3d4176c8a61","resource":{"resourceType":"Organization","id":"c95435d6-86e2-4ab8-91da-e3d4176c8a61","meta":{"profile":["http://hl7.org/fhir/us/qicore/StructureDefinition/qicore-organization"]},"identifier":[{"use":"temp","system":"urn:oid:2.16.840.1.113883.4.4","value":"21-3259825"}],"active":true,"type":[{"coding":[{"system":"http://terminology.hl7.org/CodeSystem/organization-type","code":"pay","display":"Payer"}]}],"name":"Blue Cross Blue Shield of Texas","telecom":[{"system":"phone","value":"(+1) 972-766-6900"}],"address":[{"use":"billing","type":"postal","line":["P.O. Box 660044"],"city":"Dallas","state":"TX","postalCode":"75266-0044","country":"USA"}]},"request":{"method":"PUT","url":"Organization/c95435d6-86e2-4ab8-91da-e3d4176c8a61"}},{"fullUrl":"https://madie.cms.gov/MeasureReport/6e73cf26-705d-493c-9e9a-b1f13cfed3cb","resource":{"resourceType":"MeasureReport","id":"6e73cf26-705d-493c-9e9a-b1f13cfed3cb","meta":{"profile":["http://hl7.org/fhir/us/cqfmeasures/StructureDefinition/test-case-cqfm"]},"contained":[{"resourceType":"Parameters","id":"77b4f04b-aec9-407b-8a95-2c117736870e-parameters","parameter":[{"name":"subject","valueString":"94300728-c5ff-4ee9-a4cc-717ae5d33518"}]}],"extension":[{"url":"http://hl7.org/fhir/us/cqfmeasures/StructureDefinition/cqfm-inputParameters","valueReference":{"reference":"#77b4f04b-aec9-407b-8a95-2c117736870e-parameters"}},{"url":"http://hl7.org/fhir/us/cqfmeasures/StructureDefinition/cqfm-testCaseDescription","valueMarkdown":"Patient receives CMO during inpatient encounter. ED ends 60 minutes before inpatient encounter start. No Observation. Testing HospitalizationWithObservation function."}],"modifierExtension":[{"url":"http://hl7.org/fhir/us/cqfmeasures/StructureDefinition/cqfm-isTestCase","valueBoolean":true}],"status":"complete","type":"individual","measure":"https://madie.cms.gov/Measure/DischargedonAntithromboticTherapyFHIR","period":{"start":"2025-01-01","end":"2025-12-31"},"group":[{"population":[{"code":{"coding":[{"system":"http://terminology.hl7.org/CodeSystem/measure-population","code":"initial-population","display":"Initial Population"}]},"count":1},{"code":{"coding":[{"system":"http://terminology.hl7.org/CodeSystem/measure-population","code":"denominator","display":"Denominator"}]},"count":1},{"code":{"coding":[{"system":"http://terminology.hl7.org/CodeSystem/measure-population","code":"denominator-exclusion","display":"Denominator Exclusion"}]},"count":1},{"code":{"coding":[{"system":"http://terminology.hl7.org/CodeSystem/measure-population","code":"numerator","display":"Numerator"}]},"count":0},{"code":{"coding":[{"system":"http://terminology.hl7.org/CodeSystem/measure-population","code":"denominator-exception","display":"Denominator Exception"}]},"count":0}]}],"evaluatedResource":[{"reference":"Patient/94300728-c5ff-4ee9-a4cc-717ae5d33518"},{"reference":"Encounter/6b3c835b-cae2-4d7b-b063-f459dccec379"},{"reference":"Encounter/f66524f5-d227-4b88-a950-2ccb16e1a2f0"},{"reference":"ServiceRequest/c4777b75-44f9-40cd-8f0f-c5136ed7a6b7"},{"reference":"Condition/1054b0df-b83e-414c-8e13-1c17b5dbd0f1"},{"reference":"Coverage/8175b239-ee87-4b07-872e-f7cbaf54321c"},{"reference":"Organization/c95435d6-86e2-4ab8-91da-e3d4176c8a61"}]},"request":{"method":"PUT","url":"MeasureReport/6e73cf26-705d-493c-9e9a-b1f13cfed3cb"}}]}