{"resourceType":"Bundle","id":"tests-7a07d623-d974-4103-8a83-8f24e097824d-bundle","type":"transaction","entry":[{"fullUrl":"https://madie.cms.gov/Patient/7a07d623-d974-4103-8a83-8f24e097824d","resource":{"resourceType":"Patient","id":"7a07d623-d974-4103-8a83-8f24e097824d","meta":{"profile":["http://hl7.org/fhir/us/qicore/StructureDefinition/qicore-patient"]},"text":{"status":"generated","div":"<div xmlns=\"http://www.w3.org/1999/xhtml\"><div class=\"hapiHeaderText\">CMOdurEnc_ED&lt;1hrObs&lt;1hrBFEnc <b>DENEXPASS </b></div><table class=\"hapiPropertyTable\"><tbody><tr><td>Identifier</td><td>7f541e179007ad9d60d9a7087c5b8c8d</td></tr><tr><td>Date of birth</td><td><span>21 August 1994</span></td></tr></tbody></table></div>"},"extension":[{"url":"http://hl7.org/fhir/us/core/StructureDefinition/us-core-race","extension":[{"url":"ombCategory","valueCoding":{"system":"urn:oid:2.16.840.1.113883.6.238","code":"1002-5","display":"American Indian or Alaska Native","userSelected":true}},{"url":"text","valueString":"American Indian or Alaska Native"}]},{"url":"http://hl7.org/fhir/us/core/StructureDefinition/us-core-ethnicity","extension":[{"url":"ombCategory","valueCoding":{"system":"urn:oid:2.16.840.1.113883.6.238","code":"2135-2","display":"Hispanic or Latino","userSelected":true}},{"url":"text","valueString":"Hispanic or Latino"}]}],"identifier":[{"type":{"coding":[{"system":"http://terminology.hl7.org/CodeSystem/v2-0203","code":"MR"}]},"system":"https://bonnie-fhir.healthit.gov/","value":"6129133d02c62a011f2e69a8"}],"active":true,"name":[{"use":"usual","family":"DENEXPass","given":["CMOdurEnc_ED<1hrObs<1hrBFEnc"]}],"gender":"male","birthDate":"1994-08-21"},"request":{"method":"PUT","url":"Patient/7a07d623-d974-4103-8a83-8f24e097824d"}},{"fullUrl":"https://madie.cms.gov/Encounter/b3b0fead-ccce-4608-b1e5-d031fb83ed4a","resource":{"resourceType":"Encounter","id":"b3b0fead-ccce-4608-b1e5-d031fb83ed4a","meta":{"profile":["http://hl7.org/fhir/us/qicore/StructureDefinition/qicore-encounter"]},"status":"finished","class":{"system":"http://terminology.hl7.org/CodeSystem/v3-ActCode","code":"EMER","display":"emergency","userSelected":true},"type":[{"coding":[{"system":"http://snomed.info/sct","code":"4525004"}]}],"subject":{"reference":"Patient/7a07d623-d974-4103-8a83-8f24e097824d"},"period":{"start":"2025-10-10T07:30:00.000+00:00","end":"2025-10-10T07:35:00.000+00:00"},"length":{"value":0,"unit":"days"}},"request":{"method":"PUT","url":"Encounter/b3b0fead-ccce-4608-b1e5-d031fb83ed4a"}},{"fullUrl":"https://madie.cms.gov/Encounter/4f34008b-f451-4136-a455-11060c20e5cf","resource":{"resourceType":"Encounter","id":"4f34008b-f451-4136-a455-11060c20e5cf","meta":{"profile":["http://hl7.org/fhir/us/qicore/StructureDefinition/qicore-encounter"]},"status":"finished","class":{"system":"http://terminology.hl7.org/CodeSystem/v3-ActCode","code":"OBSENC","display":"observation encounter","userSelected":true},"type":[{"coding":[{"system":"http://snomed.info/sct","code":"448851000124103"}]}],"subject":{"reference":"Patient/7a07d623-d974-4103-8a83-8f24e097824d"},"period":{"start":"2025-10-10T07:36:00.000+00:00","end":"2025-10-10T07:40:00.000+00:00"},"length":{"value":0,"unit":"days"}},"request":{"method":"PUT","url":"Encounter/4f34008b-f451-4136-a455-11060c20e5cf"}},{"fullUrl":"https://madie.cms.gov/Encounter/48a41fcc-1e6d-4f1d-8266-1f26a19de4ce","resource":{"resourceType":"Encounter","id":"48a41fcc-1e6d-4f1d-8266-1f26a19de4ce","meta":{"profile":["http://hl7.org/fhir/us/qicore/StructureDefinition/qicore-encounter"]},"status":"finished","class":{"system":"http://terminology.hl7.org/CodeSystem/v3-ActCode","code":"ACUTE","display":"inpatient acute","userSelected":true},"type":[{"coding":[{"system":"http://snomed.info/sct","code":"32485007"}]}],"subject":{"reference":"Patient/7a07d623-d974-4103-8a83-8f24e097824d"},"period":{"start":"2025-10-10T07:41:00.000+00:00","end":"2025-10-12T10:30:00.000+00:00"},"length":{"value":2,"unit":"days"},"diagnosis":[{"condition":{"reference":"Condition/2f3d5fbe-61d9-480d-9ed0-60f368a468cc"},"use":{"coding":[{"system":"http://terminology.hl7.org/CodeSystem/diagnosis-role","code":"billing","display":"Billing"}]},"rank":1}]},"request":{"method":"PUT","url":"Encounter/48a41fcc-1e6d-4f1d-8266-1f26a19de4ce"}},{"fullUrl":"https://madie.cms.gov/ServiceRequest/e4b586ed-8ed8-4a86-abec-040acdd23043","resource":{"resourceType":"ServiceRequest","id":"e4b586ed-8ed8-4a86-abec-040acdd23043","meta":{"profile":["http://hl7.org/fhir/us/qicore/StructureDefinition/qicore-servicerequest"]},"status":"active","intent":"order","code":{"coding":[{"system":"http://snomed.info/sct","code":"133918004"}]},"subject":{"reference":"Patient/7a07d623-d974-4103-8a83-8f24e097824d"},"authoredOn":"2025-10-10T07:46:00.000+00:00"},"request":{"method":"PUT","url":"ServiceRequest/e4b586ed-8ed8-4a86-abec-040acdd23043"}},{"fullUrl":"https://madie.cms.gov/Condition/2f3d5fbe-61d9-480d-9ed0-60f368a468cc","resource":{"resourceType":"Condition","id":"2f3d5fbe-61d9-480d-9ed0-60f368a468cc","meta":{"profile":["http://hl7.org/fhir/us/qicore/StructureDefinition/qicore-condition"]},"clinicalStatus":{"coding":[{"system":"http://terminology.hl7.org/CodeSystem/condition-clinical","code":"active"}]},"verificationStatus":{"coding":[{"system":"http://terminology.hl7.org/CodeSystem/condition-ver-status","code":"confirmed"}]},"category":[{"coding":[{"system":"http://terminology.hl7.org/CodeSystem/condition-category","code":"encounter-diagnosis","display":"Encounter Diagnosis"}]}],"code":{"coding":[{"system":"http://snomed.info/sct","version":"2020-09","code":"111297002","display":"Nonparalytic stroke (disorder)","userSelected":true}]},"subject":{"reference":"Patient/7a07d623-d974-4103-8a83-8f24e097824d"},"recordedDate":"2025-07-14T08:00:00.000+00:00"},"request":{"method":"PUT","url":"Condition/2f3d5fbe-61d9-480d-9ed0-60f368a468cc"}},{"fullUrl":"https://madie.cms.gov/Coverage/8d6e29cd-531f-40fa-a370-44fe143492fe","resource":{"resourceType":"Coverage","id":"8d6e29cd-531f-40fa-a370-44fe143492fe","meta":{"profile":["http://hl7.org/fhir/us/qicore/StructureDefinition/qicore-coverage"]},"status":"active","beneficiary":{"reference":"Patient/7a07d623-d974-4103-8a83-8f24e097824d"},"payor":[{"reference":"Organization/e74cc002-0c55-4d36-987c-160d63ff40df"}]},"request":{"method":"PUT","url":"Coverage/8d6e29cd-531f-40fa-a370-44fe143492fe"}},{"fullUrl":"https://madie.cms.gov/Organization/e74cc002-0c55-4d36-987c-160d63ff40df","resource":{"resourceType":"Organization","id":"e74cc002-0c55-4d36-987c-160d63ff40df","meta":{"profile":["http://hl7.org/fhir/us/qicore/StructureDefinition/qicore-organization"]},"identifier":[{"use":"temp","system":"urn:oid:2.16.840.1.113883.4.4","value":"21-3259825"}],"active":true,"type":[{"coding":[{"system":"http://terminology.hl7.org/CodeSystem/organization-type","code":"pay","display":"Payer"}]}],"name":"Blue Cross Blue Shield of Texas","telecom":[{"system":"phone","value":"(+1) 972-766-6900"}],"address":[{"use":"billing","type":"postal","line":["P.O. Box 660044"],"city":"Dallas","state":"TX","postalCode":"75266-0044","country":"USA"}]},"request":{"method":"PUT","url":"Organization/e74cc002-0c55-4d36-987c-160d63ff40df"}},{"fullUrl":"https://madie.cms.gov/MeasureReport/5c467ec3-049f-44c8-8eea-83af794bf62b","resource":{"resourceType":"MeasureReport","id":"5c467ec3-049f-44c8-8eea-83af794bf62b","meta":{"profile":["http://hl7.org/fhir/us/cqfmeasures/StructureDefinition/test-case-cqfm"]},"contained":[{"resourceType":"Parameters","id":"3c87daa4-85b1-4f2e-9bcf-6774db67b6d2-parameters","parameter":[{"name":"subject","valueString":"7a07d623-d974-4103-8a83-8f24e097824d"}]}],"extension":[{"url":"http://hl7.org/fhir/us/cqfmeasures/StructureDefinition/cqfm-inputParameters","valueReference":{"reference":"#3c87daa4-85b1-4f2e-9bcf-6774db67b6d2-parameters"}},{"url":"http://hl7.org/fhir/us/cqfmeasures/StructureDefinition/cqfm-testCaseDescription","valueMarkdown":"Patient receives CMO during inpatient encounter. ED ends 1 minute before observation. Obs ends 1 min before inpatient encounter start. Testing day of operator with HospitalizationWithObservation function."}],"modifierExtension":[{"url":"http://hl7.org/fhir/us/cqfmeasures/StructureDefinition/cqfm-isTestCase","valueBoolean":true}],"status":"complete","type":"individual","measure":"https://madie.cms.gov/Measure/DischargedonAntithromboticTherapyFHIR","period":{"start":"2025-01-01","end":"2025-12-31"},"group":[{"population":[{"code":{"coding":[{"system":"http://terminology.hl7.org/CodeSystem/measure-population","code":"initial-population","display":"Initial Population"}]},"count":1},{"code":{"coding":[{"system":"http://terminology.hl7.org/CodeSystem/measure-population","code":"denominator","display":"Denominator"}]},"count":1},{"code":{"coding":[{"system":"http://terminology.hl7.org/CodeSystem/measure-population","code":"denominator-exclusion","display":"Denominator Exclusion"}]},"count":1},{"code":{"coding":[{"system":"http://terminology.hl7.org/CodeSystem/measure-population","code":"numerator","display":"Numerator"}]},"count":0},{"code":{"coding":[{"system":"http://terminology.hl7.org/CodeSystem/measure-population","code":"denominator-exception","display":"Denominator Exception"}]},"count":0}]}],"evaluatedResource":[{"reference":"Patient/7a07d623-d974-4103-8a83-8f24e097824d"},{"reference":"Encounter/b3b0fead-ccce-4608-b1e5-d031fb83ed4a"},{"reference":"Encounter/4f34008b-f451-4136-a455-11060c20e5cf"},{"reference":"Encounter/48a41fcc-1e6d-4f1d-8266-1f26a19de4ce"},{"reference":"ServiceRequest/e4b586ed-8ed8-4a86-abec-040acdd23043"},{"reference":"Condition/2f3d5fbe-61d9-480d-9ed0-60f368a468cc"},{"reference":"Coverage/8d6e29cd-531f-40fa-a370-44fe143492fe"},{"reference":"Organization/e74cc002-0c55-4d36-987c-160d63ff40df"}]},"request":{"method":"PUT","url":"MeasureReport/5c467ec3-049f-44c8-8eea-83af794bf62b"}}]}