{"resourceType":"Bundle","id":"tests-9da36a6d-e301-4a55-b2fb-a0663044d313-bundle","type":"transaction","entry":[{"fullUrl":"https://madie.cms.gov/Patient/9da36a6d-e301-4a55-b2fb-a0663044d313","resource":{"resourceType":"Patient","id":"9da36a6d-e301-4a55-b2fb-a0663044d313","meta":{"profile":["http://hl7.org/fhir/us/qicore/StructureDefinition/qicore-patient"]},"text":{"status":"generated","div":"<div xmlns=\"http://www.w3.org/1999/xhtml\"><div class=\"hapiHeaderText\">AntithromboticTMeqIPAdmTM <b>NUMERPASS </b></div><table class=\"hapiPropertyTable\"><tbody><tr><td>Identifier</td><td>09185becde4292df8c5ecbeb8287eadc</td></tr><tr><td>Date of birth</td><td><span>31 May 1990</span></td></tr></tbody></table></div>"},"extension":[{"url":"http://hl7.org/fhir/us/core/StructureDefinition/us-core-race","extension":[{"url":"ombCategory","valueCoding":{"system":"urn:oid:2.16.840.1.113883.6.238","code":"1002-5","display":"American Indian or Alaska Native","userSelected":true}},{"url":"text","valueString":"American Indian or Alaska Native"}]},{"url":"http://hl7.org/fhir/us/core/StructureDefinition/us-core-ethnicity","extension":[{"url":"ombCategory","valueCoding":{"system":"urn:oid:2.16.840.1.113883.6.238","code":"2135-2","display":"Hispanic or Latino","userSelected":true}},{"url":"text","valueString":"Hispanic or Latino"}]}],"identifier":[{"type":{"coding":[{"system":"http://terminology.hl7.org/CodeSystem/v2-0203","code":"MR"}]},"system":"https://bonnie-fhir.healthit.gov/","value":"6129134702c62a011f2e6e49"}],"active":true,"name":[{"use":"usual","family":"NUMERPass","given":["AntithromboticTMeqIPAdmTM"]}],"gender":"male","birthDate":"1990-05-31"},"request":{"method":"PUT","url":"Patient/9da36a6d-e301-4a55-b2fb-a0663044d313"}},{"fullUrl":"https://madie.cms.gov/Encounter/2d0b5d71-9e8d-4ce9-a951-e47d81f7e612","resource":{"resourceType":"Encounter","id":"2d0b5d71-9e8d-4ce9-a951-e47d81f7e612","meta":{"profile":["http://hl7.org/fhir/us/qicore/StructureDefinition/qicore-encounter"]},"status":"finished","class":{"system":"http://terminology.hl7.org/CodeSystem/v3-ActCode","code":"IMP","display":"inpatient encounter","userSelected":true},"type":[{"coding":[{"system":"http://snomed.info/sct","code":"32485007"}]}],"subject":{"reference":"Patient/9da36a6d-e301-4a55-b2fb-a0663044d313"},"period":{"start":"2025-06-15T09:30:00.000+00:00","end":"2025-10-12T10:30:00.000+00:00"},"length":{"value":119,"unit":"days"},"diagnosis":[{"condition":{"reference":"Condition/353ffb8e-bdd6-4362-9859-bae1e89f4be2"},"use":{"coding":[{"system":"http://terminology.hl7.org/CodeSystem/diagnosis-role","code":"billing","display":"Billing"}]},"rank":1}]},"request":{"method":"PUT","url":"Encounter/2d0b5d71-9e8d-4ce9-a951-e47d81f7e612"}},{"fullUrl":"https://madie.cms.gov/MedicationRequest/0bd8ada6-89dd-49d0-b826-bfa61085ca16","resource":{"resourceType":"MedicationRequest","id":"0bd8ada6-89dd-49d0-b826-bfa61085ca16","meta":{"profile":["http://hl7.org/fhir/us/qicore/StructureDefinition/qicore-medicationrequest"]},"status":"active","intent":"order","category":[{"coding":[{"system":"http://terminology.hl7.org/CodeSystem/medicationrequest-category","code":"discharge","display":"Discharge","userSelected":true}]}],"medicationCodeableConcept":{"coding":[{"system":"http://www.nlm.nih.gov/research/umls/rxnorm","code":"1037045"}]},"subject":{"reference":"Patient/9da36a6d-e301-4a55-b2fb-a0663044d313"},"authoredOn":"2025-06-15T09:30:00.000+00:00","requester":{"reference":"Practitioner/example"}},"request":{"method":"PUT","url":"MedicationRequest/0bd8ada6-89dd-49d0-b826-bfa61085ca16"}},{"fullUrl":"https://madie.cms.gov/Condition/353ffb8e-bdd6-4362-9859-bae1e89f4be2","resource":{"resourceType":"Condition","id":"353ffb8e-bdd6-4362-9859-bae1e89f4be2","meta":{"profile":["http://hl7.org/fhir/us/qicore/StructureDefinition/qicore-condition"]},"clinicalStatus":{"coding":[{"system":"http://terminology.hl7.org/CodeSystem/condition-clinical","code":"active"}]},"verificationStatus":{"coding":[{"system":"http://terminology.hl7.org/CodeSystem/condition-ver-status","code":"confirmed"}]},"category":[{"coding":[{"system":"http://terminology.hl7.org/CodeSystem/condition-category","code":"encounter-diagnosis","display":"Encounter Diagnosis"}]}],"code":{"coding":[{"system":"http://snomed.info/sct","version":"2020-09","code":"111297002","display":"Nonparalytic stroke (disorder)","userSelected":true}]},"subject":{"reference":"Patient/9da36a6d-e301-4a55-b2fb-a0663044d313"},"recordedDate":"2025-07-15T08:00:00.000+00:00"},"request":{"method":"PUT","url":"Condition/353ffb8e-bdd6-4362-9859-bae1e89f4be2"}},{"fullUrl":"https://madie.cms.gov/Coverage/00b0ebf9-1c50-4a84-bcdc-22d6111c6577","resource":{"resourceType":"Coverage","id":"00b0ebf9-1c50-4a84-bcdc-22d6111c6577","meta":{"profile":["http://hl7.org/fhir/us/qicore/StructureDefinition/qicore-coverage"]},"status":"active","beneficiary":{"reference":"Patient/9da36a6d-e301-4a55-b2fb-a0663044d313"},"payor":[{"reference":"Organization/8bcda637-267d-4dca-8fc0-679ace4c03a0"}]},"request":{"method":"PUT","url":"Coverage/00b0ebf9-1c50-4a84-bcdc-22d6111c6577"}},{"fullUrl":"https://madie.cms.gov/Organization/8bcda637-267d-4dca-8fc0-679ace4c03a0","resource":{"resourceType":"Organization","id":"8bcda637-267d-4dca-8fc0-679ace4c03a0","meta":{"profile":["http://hl7.org/fhir/us/qicore/StructureDefinition/qicore-organization"]},"identifier":[{"use":"temp","system":"urn:oid:2.16.840.1.113883.4.4","value":"21-3259825"}],"active":true,"type":[{"coding":[{"system":"http://terminology.hl7.org/CodeSystem/organization-type","code":"pay","display":"Payer"}]}],"name":"Blue Cross Blue Shield of Texas","telecom":[{"system":"phone","value":"(+1) 972-766-6900"}],"address":[{"use":"billing","type":"postal","line":["P.O. Box 660044"],"city":"Dallas","state":"TX","postalCode":"75266-0044","country":"USA"}]},"request":{"method":"PUT","url":"Organization/8bcda637-267d-4dca-8fc0-679ace4c03a0"}},{"fullUrl":"https://madie.cms.gov/MeasureReport/3438c2c4-a68e-480a-978d-5205dc46cbee","resource":{"resourceType":"MeasureReport","id":"3438c2c4-a68e-480a-978d-5205dc46cbee","meta":{"profile":["http://hl7.org/fhir/us/cqfmeasures/StructureDefinition/test-case-cqfm"]},"contained":[{"resourceType":"Parameters","id":"b292f1d9-ff9f-43af-9d90-3d7bfd91517d-parameters","parameter":[{"name":"subject","valueString":"9da36a6d-e301-4a55-b2fb-a0663044d313"}]}],"extension":[{"url":"http://hl7.org/fhir/us/cqfmeasures/StructureDefinition/cqfm-inputParameters","valueReference":{"reference":"#b292f1d9-ff9f-43af-9d90-3d7bfd91517d-parameters"}},{"url":"http://hl7.org/fhir/us/cqfmeasures/StructureDefinition/cqfm-testCaseDescription","valueMarkdown":"Patient is GT 18 with Non-Elective Inpatient Encounter (LOS 120 days) with principal diagnosis of ischemic stroke ends during MP received antithrombotic during IP encounter\n"}],"modifierExtension":[{"url":"http://hl7.org/fhir/us/cqfmeasures/StructureDefinition/cqfm-isTestCase","valueBoolean":true}],"status":"complete","type":"individual","measure":"https://madie.cms.gov/Measure/DischargedonAntithromboticTherapyFHIR","period":{"start":"2025-01-01","end":"2025-12-31"},"group":[{"population":[{"code":{"coding":[{"system":"http://terminology.hl7.org/CodeSystem/measure-population","code":"initial-population","display":"Initial Population"}]},"count":1},{"code":{"coding":[{"system":"http://terminology.hl7.org/CodeSystem/measure-population","code":"denominator","display":"Denominator"}]},"count":1},{"code":{"coding":[{"system":"http://terminology.hl7.org/CodeSystem/measure-population","code":"denominator-exclusion","display":"Denominator Exclusion"}]},"count":0},{"code":{"coding":[{"system":"http://terminology.hl7.org/CodeSystem/measure-population","code":"numerator","display":"Numerator"}]},"count":1},{"code":{"coding":[{"system":"http://terminology.hl7.org/CodeSystem/measure-population","code":"denominator-exception","display":"Denominator Exception"}]},"count":0}]}],"evaluatedResource":[{"reference":"Patient/9da36a6d-e301-4a55-b2fb-a0663044d313"},{"reference":"Encounter/2d0b5d71-9e8d-4ce9-a951-e47d81f7e612"},{"reference":"MedicationRequest/0bd8ada6-89dd-49d0-b826-bfa61085ca16"},{"reference":"Condition/353ffb8e-bdd6-4362-9859-bae1e89f4be2"},{"reference":"Coverage/00b0ebf9-1c50-4a84-bcdc-22d6111c6577"},{"reference":"Organization/8bcda637-267d-4dca-8fc0-679ace4c03a0"}]},"request":{"method":"PUT","url":"MeasureReport/3438c2c4-a68e-480a-978d-5205dc46cbee"}}]}