{"resourceType":"Bundle","id":"tests-0d29bebd-f048-42e1-b63e-6152911b1657-bundle","type":"transaction","entry":[{"fullUrl":"https://madie.cms.gov/Patient/0d29bebd-f048-42e1-b63e-6152911b1657","resource":{"resourceType":"Patient","id":"0d29bebd-f048-42e1-b63e-6152911b1657","meta":{"profile":["http://hl7.org/fhir/us/qicore/StructureDefinition/qicore-patient"]},"text":{"status":"generated","div":"<div xmlns=\"http://www.w3.org/1999/xhtml\"><div class=\"hapiHeaderText\">DischargeFacilityHospice <b>DENEXPASS </b></div><table class=\"hapiPropertyTable\"><tbody><tr><td>Identifier</td><td>823861f6e057b796660e645a4195adf6</td></tr><tr><td>Date of birth</td><td><span>21 August 1994</span></td></tr></tbody></table></div>"},"extension":[{"url":"http://hl7.org/fhir/us/core/StructureDefinition/us-core-race","extension":[{"url":"ombCategory","valueCoding":{"system":"urn:oid:2.16.840.1.113883.6.238","code":"1002-5","display":"American Indian or Alaska Native","userSelected":true}},{"url":"text","valueString":"American Indian or Alaska Native"}]},{"url":"http://hl7.org/fhir/us/core/StructureDefinition/us-core-ethnicity","extension":[{"url":"ombCategory","valueCoding":{"system":"urn:oid:2.16.840.1.113883.6.238","code":"2135-2","display":"Hispanic or Latino","userSelected":true}},{"url":"text","valueString":"Hispanic or Latino"}]}],"identifier":[{"type":{"coding":[{"system":"http://terminology.hl7.org/CodeSystem/v2-0203","code":"MR"}]},"system":"https://bonnie-fhir.healthit.gov/","value":"6129132b02c62a011f2e620b"}],"active":true,"name":[{"use":"usual","family":"DENEXPass","given":["DischargeFacilityHospice"]}],"gender":"male","birthDate":"1994-08-21"},"request":{"method":"PUT","url":"Patient/0d29bebd-f048-42e1-b63e-6152911b1657"}},{"fullUrl":"https://madie.cms.gov/Encounter/37e8d6d3-5bfb-4ecf-ab91-5a6f73a89f78","resource":{"resourceType":"Encounter","id":"37e8d6d3-5bfb-4ecf-ab91-5a6f73a89f78","meta":{"profile":["http://hl7.org/fhir/us/qicore/StructureDefinition/qicore-encounter"]},"status":"finished","class":{"system":"http://terminology.hl7.org/CodeSystem/v3-ActCode","code":"IMP","display":"inpatient encounter","userSelected":true},"type":[{"coding":[{"system":"http://snomed.info/sct","code":"32485007"}]}],"subject":{"reference":"Patient/0d29bebd-f048-42e1-b63e-6152911b1657"},"period":{"start":"2025-10-10T09:30:00.000+00:00","end":"2025-10-12T10:30:00.000+00:00"},"length":{"value":2,"unit":"days"},"diagnosis":[{"condition":{"reference":"Condition/be970efc-c269-4325-a3d4-988c3a3a9824"},"use":{"coding":[{"system":"http://terminology.hl7.org/CodeSystem/diagnosis-role","code":"billing","display":"Billing"}]},"rank":1}],"hospitalization":{"dischargeDisposition":{"coding":[{"system":"http://snomed.info/sct","code":"428371000124100","display":"Discharged to Health Care Facility for Hospice Care"}]}}},"request":{"method":"PUT","url":"Encounter/37e8d6d3-5bfb-4ecf-ab91-5a6f73a89f78"}},{"fullUrl":"https://madie.cms.gov/Condition/be970efc-c269-4325-a3d4-988c3a3a9824","resource":{"resourceType":"Condition","id":"be970efc-c269-4325-a3d4-988c3a3a9824","meta":{"profile":["http://hl7.org/fhir/us/qicore/StructureDefinition/qicore-condition"]},"clinicalStatus":{"coding":[{"system":"http://terminology.hl7.org/CodeSystem/condition-clinical","code":"active"}]},"verificationStatus":{"coding":[{"system":"http://terminology.hl7.org/CodeSystem/condition-ver-status","code":"confirmed"}]},"category":[{"coding":[{"system":"http://terminology.hl7.org/CodeSystem/condition-category","code":"encounter-diagnosis","display":"Encounter Diagnosis"}]}],"code":{"coding":[{"system":"http://snomed.info/sct","version":"2020-09","code":"111297002","display":"Nonparalytic stroke (disorder)","userSelected":true}]},"subject":{"reference":"Patient/0d29bebd-f048-42e1-b63e-6152911b1657"},"recordedDate":"2025-07-15T08:00:00.000+00:00"},"request":{"method":"PUT","url":"Condition/be970efc-c269-4325-a3d4-988c3a3a9824"}},{"fullUrl":"https://madie.cms.gov/Coverage/99381cf5-cbb0-4400-beb8-a3894c7865bd","resource":{"resourceType":"Coverage","id":"99381cf5-cbb0-4400-beb8-a3894c7865bd","meta":{"profile":["http://hl7.org/fhir/us/qicore/StructureDefinition/qicore-coverage"]},"status":"active","beneficiary":{"reference":"Patient/0d29bebd-f048-42e1-b63e-6152911b1657"},"payor":[{"reference":"Organization/703421c1-44d7-45d9-818d-cbffb7c60bf6"}]},"request":{"method":"PUT","url":"Coverage/99381cf5-cbb0-4400-beb8-a3894c7865bd"}},{"fullUrl":"https://madie.cms.gov/Organization/703421c1-44d7-45d9-818d-cbffb7c60bf6","resource":{"resourceType":"Organization","id":"703421c1-44d7-45d9-818d-cbffb7c60bf6","meta":{"profile":["http://hl7.org/fhir/us/qicore/StructureDefinition/qicore-organization"]},"identifier":[{"use":"temp","system":"urn:oid:2.16.840.1.113883.4.4","value":"21-3259825"}],"active":true,"type":[{"coding":[{"system":"http://terminology.hl7.org/CodeSystem/organization-type","code":"pay","display":"Payer"}]}],"name":"Blue Cross Blue Shield of Texas","telecom":[{"system":"phone","value":"(+1) 972-766-6900"}],"address":[{"use":"billing","type":"postal","line":["P.O. Box 660044"],"city":"Dallas","state":"TX","postalCode":"75266-0044","country":"USA"}]},"request":{"method":"PUT","url":"Organization/703421c1-44d7-45d9-818d-cbffb7c60bf6"}},{"fullUrl":"https://madie.cms.gov/MeasureReport/e2af2f0f-4952-496c-89d4-f37aae9b840e","resource":{"resourceType":"MeasureReport","id":"e2af2f0f-4952-496c-89d4-f37aae9b840e","meta":{"profile":["http://hl7.org/fhir/us/cqfmeasures/StructureDefinition/test-case-cqfm"]},"contained":[{"resourceType":"Parameters","id":"779e8eae-5ab1-4e1c-a68c-0c422b07d4de-parameters","parameter":[{"name":"subject","valueString":"0d29bebd-f048-42e1-b63e-6152911b1657"}]}],"extension":[{"url":"http://hl7.org/fhir/us/cqfmeasures/StructureDefinition/cqfm-inputParameters","valueReference":{"reference":"#779e8eae-5ab1-4e1c-a68c-0c422b07d4de-parameters"}},{"url":"http://hl7.org/fhir/us/cqfmeasures/StructureDefinition/cqfm-testCaseDescription","valueMarkdown":"vPatient is 18 with Non-Elective Inpatient Encounter with principal diagnosis of ischemic stroke ends during MP discharged to health care facility for hospice care"}],"modifierExtension":[{"url":"http://hl7.org/fhir/us/cqfmeasures/StructureDefinition/cqfm-isTestCase","valueBoolean":true}],"status":"complete","type":"individual","measure":"https://madie.cms.gov/Measure/DischargedonAntithromboticTherapyFHIR","period":{"start":"2025-01-01","end":"2025-12-31"},"group":[{"population":[{"code":{"coding":[{"system":"http://terminology.hl7.org/CodeSystem/measure-population","code":"initial-population","display":"Initial Population"}]},"count":1},{"code":{"coding":[{"system":"http://terminology.hl7.org/CodeSystem/measure-population","code":"denominator","display":"Denominator"}]},"count":1},{"code":{"coding":[{"system":"http://terminology.hl7.org/CodeSystem/measure-population","code":"denominator-exclusion","display":"Denominator Exclusion"}]},"count":1},{"code":{"coding":[{"system":"http://terminology.hl7.org/CodeSystem/measure-population","code":"numerator","display":"Numerator"}]},"count":0},{"code":{"coding":[{"system":"http://terminology.hl7.org/CodeSystem/measure-population","code":"denominator-exception","display":"Denominator Exception"}]},"count":0}]}],"evaluatedResource":[{"reference":"Patient/0d29bebd-f048-42e1-b63e-6152911b1657"},{"reference":"Encounter/37e8d6d3-5bfb-4ecf-ab91-5a6f73a89f78"},{"reference":"Condition/be970efc-c269-4325-a3d4-988c3a3a9824"},{"reference":"Coverage/99381cf5-cbb0-4400-beb8-a3894c7865bd"},{"reference":"Organization/703421c1-44d7-45d9-818d-cbffb7c60bf6"}]},"request":{"method":"PUT","url":"MeasureReport/e2af2f0f-4952-496c-89d4-f37aae9b840e"}}]}