{"resourceType":"Bundle","id":"tests-585a26eb-772b-48be-8702-d0310599e3ad-bundle","type":"transaction","entry":[{"fullUrl":"https://madie.cms.gov/Patient/585a26eb-772b-48be-8702-d0310599e3ad","resource":{"resourceType":"Patient","id":"585a26eb-772b-48be-8702-d0310599e3ad","meta":{"profile":["http://hl7.org/fhir/us/qicore/StructureDefinition/qicore-patient"]},"text":{"status":"generated","div":"<div xmlns=\"http://www.w3.org/1999/xhtml\"><div class=\"hapiHeaderText\"> CMOdurDiffEDTestOccur <b>DENEXFail </b></div><table class=\"hapiPropertyTable\"><tbody><tr><td>Identifier</td><td>8ca2b35206ea67637d1637609c7d085ff3b14c20bc19eae5b26464da239a5345</td></tr><tr><td>Date of birth</td><td><span>21 August 1994</span></td></tr></tbody></table></div>"},"extension":[{"url":"http://hl7.org/fhir/us/core/StructureDefinition/us-core-race","extension":[{"url":"ombCategory","valueCoding":{"system":"urn:oid:2.16.840.1.113883.6.238","code":"1002-5","display":"American Indian or Alaska Native","userSelected":true}},{"url":"text","valueString":"American Indian or Alaska Native"}]},{"url":"http://hl7.org/fhir/us/core/StructureDefinition/us-core-ethnicity","extension":[{"url":"ombCategory","valueCoding":{"system":"urn:oid:2.16.840.1.113883.6.238","code":"2135-2","display":"Hispanic or Latino","userSelected":true}},{"url":"text","valueString":"Hispanic or Latino"}]}],"identifier":[{"type":{"coding":[{"system":"http://terminology.hl7.org/CodeSystem/v2-0203","code":"MR"}]},"system":"https://bonnie-fhir.healthit.gov/","value":"6129135502c62a011f2e752c"}],"active":true,"name":[{"use":"usual","family":"DENEXFail","given":[" CMOdurDiffEDTestOccur"]}],"gender":"male","birthDate":"1994-08-21"},"request":{"method":"PUT","url":"Patient/585a26eb-772b-48be-8702-d0310599e3ad"}},{"fullUrl":"https://madie.cms.gov/Encounter/6595c75f-7ad6-4e7b-8d26-5136f4199054","resource":{"resourceType":"Encounter","id":"6595c75f-7ad6-4e7b-8d26-5136f4199054","meta":{"profile":["http://hl7.org/fhir/us/qicore/StructureDefinition/qicore-encounter"]},"status":"finished","class":{"system":"http://terminology.hl7.org/CodeSystem/v3-ActCode","code":"EMER","display":"emergency","userSelected":true},"type":[{"coding":[{"system":"http://snomed.info/sct","code":"4525004"}]}],"subject":{"reference":"Patient/585a26eb-772b-48be-8702-d0310599e3ad"},"period":{"start":"2025-10-10T12:31:00.000+00:00","end":"2025-10-10T12:46:00.000+00:00"},"length":{"value":0,"unit":"days"}},"request":{"method":"PUT","url":"Encounter/6595c75f-7ad6-4e7b-8d26-5136f4199054"}},{"fullUrl":"https://madie.cms.gov/Encounter/2455d0fe-b9ec-48fd-a6a6-b47a1be90740","resource":{"resourceType":"Encounter","id":"2455d0fe-b9ec-48fd-a6a6-b47a1be90740","meta":{"profile":["http://hl7.org/fhir/us/qicore/StructureDefinition/qicore-encounter"]},"status":"finished","class":{"system":"http://terminology.hl7.org/CodeSystem/v3-ActCode","code":"EMER","display":"emergency","userSelected":true},"type":[{"coding":[{"system":"http://snomed.info/sct","code":"4525004"}]}],"subject":{"reference":"Patient/585a26eb-772b-48be-8702-d0310599e3ad"},"period":{"start":"2025-10-11T10:30:00.000+00:00","end":"2025-10-11T11:30:00.000+00:00"},"length":{"value":0,"unit":"days"}},"request":{"method":"PUT","url":"Encounter/2455d0fe-b9ec-48fd-a6a6-b47a1be90740"}},{"fullUrl":"https://madie.cms.gov/Encounter/4f9cb6fb-0fe5-4037-bf83-276a801e6968","resource":{"resourceType":"Encounter","id":"4f9cb6fb-0fe5-4037-bf83-276a801e6968","meta":{"profile":["http://hl7.org/fhir/us/qicore/StructureDefinition/qicore-encounter"]},"status":"finished","class":{"system":"http://terminology.hl7.org/CodeSystem/v3-ActCode","code":"IMP","display":"inpatient encounter","userSelected":true},"type":[{"coding":[{"system":"http://snomed.info/sct","code":"32485007"}]}],"subject":{"reference":"Patient/585a26eb-772b-48be-8702-d0310599e3ad"},"period":{"start":"2025-10-11T12:30:00.000+00:00","end":"2025-10-13T11:30:00.000+00:00"},"length":{"value":2,"unit":"days"},"diagnosis":[{"condition":{"reference":"Condition/be90e98e-05da-4e1d-9cad-f4b5ee537923"},"use":{"coding":[{"system":"http://terminology.hl7.org/CodeSystem/diagnosis-role","code":"billing","display":"Billing"}]},"rank":1}]},"request":{"method":"PUT","url":"Encounter/4f9cb6fb-0fe5-4037-bf83-276a801e6968"}},{"fullUrl":"https://madie.cms.gov/ServiceRequest/1282d85e-0f6e-4935-b5bc-374a7bc12ecc","resource":{"resourceType":"ServiceRequest","id":"1282d85e-0f6e-4935-b5bc-374a7bc12ecc","meta":{"profile":["http://hl7.org/fhir/us/qicore/StructureDefinition/qicore-servicerequest"]},"status":"active","intent":"order","code":{"coding":[{"system":"http://snomed.info/sct","code":"133918004"}]},"subject":{"reference":"Patient/585a26eb-772b-48be-8702-d0310599e3ad"},"authoredOn":"2025-10-10T12:31:00.000+00:00"},"request":{"method":"PUT","url":"ServiceRequest/1282d85e-0f6e-4935-b5bc-374a7bc12ecc"}},{"fullUrl":"https://madie.cms.gov/Condition/be90e98e-05da-4e1d-9cad-f4b5ee537923","resource":{"resourceType":"Condition","id":"be90e98e-05da-4e1d-9cad-f4b5ee537923","meta":{"profile":["http://hl7.org/fhir/us/qicore/StructureDefinition/qicore-condition"]},"clinicalStatus":{"coding":[{"system":"http://terminology.hl7.org/CodeSystem/condition-clinical","code":"active"}]},"verificationStatus":{"coding":[{"system":"http://terminology.hl7.org/CodeSystem/condition-ver-status","code":"confirmed"}]},"category":[{"coding":[{"system":"http://terminology.hl7.org/CodeSystem/condition-category","code":"encounter-diagnosis","display":"Encounter Diagnosis"}]}],"code":{"coding":[{"system":"http://snomed.info/sct","version":"2020-09","code":"111297002","display":"Nonparalytic stroke (disorder)","userSelected":true}]},"subject":{"reference":"Patient/585a26eb-772b-48be-8702-d0310599e3ad"},"recordedDate":"2025-07-14T08:00:00.000+00:00"},"request":{"method":"PUT","url":"Condition/be90e98e-05da-4e1d-9cad-f4b5ee537923"}},{"fullUrl":"https://madie.cms.gov/Coverage/daae88a9-faee-4310-9595-55939f1ad4d8","resource":{"resourceType":"Coverage","id":"daae88a9-faee-4310-9595-55939f1ad4d8","meta":{"profile":["http://hl7.org/fhir/us/qicore/StructureDefinition/qicore-coverage"]},"status":"active","beneficiary":{"reference":"Patient/585a26eb-772b-48be-8702-d0310599e3ad"},"payor":[{"reference":"Organization/050377b8-dd43-4984-a2ff-bfac7002bd97"}]},"request":{"method":"PUT","url":"Coverage/daae88a9-faee-4310-9595-55939f1ad4d8"}},{"fullUrl":"https://madie.cms.gov/Organization/050377b8-dd43-4984-a2ff-bfac7002bd97","resource":{"resourceType":"Organization","id":"050377b8-dd43-4984-a2ff-bfac7002bd97","meta":{"profile":["http://hl7.org/fhir/us/qicore/StructureDefinition/qicore-organization"]},"identifier":[{"use":"temp","system":"urn:oid:2.16.840.1.113883.4.4","value":"21-3259825"}],"active":true,"type":[{"coding":[{"system":"http://terminology.hl7.org/CodeSystem/organization-type","code":"pay","display":"Payer"}]}],"name":"Blue Cross Blue Shield of Texas","telecom":[{"system":"phone","value":"(+1) 972-766-6900"}],"address":[{"use":"billing","type":"postal","line":["P.O. Box 660044"],"city":"Dallas","state":"TX","postalCode":"75266-0044","country":"USA"}]},"request":{"method":"PUT","url":"Organization/050377b8-dd43-4984-a2ff-bfac7002bd97"}},{"fullUrl":"https://madie.cms.gov/MeasureReport/c66eb1b3-313d-42be-a6c6-f3310f046e33","resource":{"resourceType":"MeasureReport","id":"c66eb1b3-313d-42be-a6c6-f3310f046e33","meta":{"profile":["http://hl7.org/fhir/us/cqfmeasures/StructureDefinition/test-case-cqfm"]},"contained":[{"resourceType":"Parameters","id":"bcc5e41c-3261-4c7a-81bc-a79d2275f304-parameters","parameter":[{"name":"subject","valueString":"585a26eb-772b-48be-8702-d0310599e3ad"}]}],"extension":[{"url":"http://hl7.org/fhir/us/cqfmeasures/StructureDefinition/cqfm-inputParameters","valueReference":{"reference":"#bcc5e41c-3261-4c7a-81bc-a79d2275f304-parameters"}},{"url":"http://hl7.org/fhir/us/cqfmeasures/StructureDefinition/cqfm-testCaseDescription","valueMarkdown":"Patient receives CMO during a different ED encounter.  Testing multiple  Encounter."}],"modifierExtension":[{"url":"http://hl7.org/fhir/us/cqfmeasures/StructureDefinition/cqfm-isTestCase","valueBoolean":true}],"status":"complete","type":"individual","measure":"https://madie.cms.gov/Measure/DischargedonAntithromboticTherapyFHIR","period":{"start":"2025-01-01","end":"2025-12-31"},"group":[{"population":[{"code":{"coding":[{"system":"http://terminology.hl7.org/CodeSystem/measure-population","code":"initial-population","display":"Initial Population"}]},"count":1},{"code":{"coding":[{"system":"http://terminology.hl7.org/CodeSystem/measure-population","code":"denominator","display":"Denominator"}]},"count":1},{"code":{"coding":[{"system":"http://terminology.hl7.org/CodeSystem/measure-population","code":"denominator-exclusion","display":"Denominator Exclusion"}]},"count":0},{"code":{"coding":[{"system":"http://terminology.hl7.org/CodeSystem/measure-population","code":"numerator","display":"Numerator"}]},"count":0},{"code":{"coding":[{"system":"http://terminology.hl7.org/CodeSystem/measure-population","code":"denominator-exception","display":"Denominator Exception"}]},"count":0}]}],"evaluatedResource":[{"reference":"Patient/585a26eb-772b-48be-8702-d0310599e3ad"},{"reference":"Encounter/6595c75f-7ad6-4e7b-8d26-5136f4199054"},{"reference":"Encounter/2455d0fe-b9ec-48fd-a6a6-b47a1be90740"},{"reference":"Encounter/4f9cb6fb-0fe5-4037-bf83-276a801e6968"},{"reference":"ServiceRequest/1282d85e-0f6e-4935-b5bc-374a7bc12ecc"},{"reference":"Condition/be90e98e-05da-4e1d-9cad-f4b5ee537923"},{"reference":"Coverage/daae88a9-faee-4310-9595-55939f1ad4d8"},{"reference":"Organization/050377b8-dd43-4984-a2ff-bfac7002bd97"}]},"request":{"method":"PUT","url":"MeasureReport/c66eb1b3-313d-42be-a6c6-f3310f046e33"}}]}