{"resourceType":"Bundle","id":"tests-25d18013-063a-44c1-a418-111e9cc00421-bundle","type":"transaction","entry":[{"fullUrl":"https://madie.cms.gov/Patient/25d18013-063a-44c1-a418-111e9cc00421","resource":{"resourceType":"Patient","id":"25d18013-063a-44c1-a418-111e9cc00421","meta":{"profile":["http://hl7.org/fhir/us/qicore/StructureDefinition/qicore-patient"]},"text":{"status":"generated","div":"<div xmlns=\"http://www.w3.org/1999/xhtml\"><div class=\"hapiHeaderText\">PrinDxIschemicStk <b>DENOMPASS </b></div><table class=\"hapiPropertyTable\"><tbody><tr><td>Identifier</td><td>18194897e45f8ffb9878afc760b9d205</td></tr><tr><td>Date of birth</td><td><span>20 August 1994</span></td></tr></tbody></table></div>"},"extension":[{"url":"http://hl7.org/fhir/us/core/StructureDefinition/us-core-race","extension":[{"url":"ombCategory","valueCoding":{"system":"urn:oid:2.16.840.1.113883.6.238","code":"1002-5","display":"American Indian or Alaska Native","userSelected":true}},{"url":"text","valueString":"American Indian or Alaska Native"}]},{"url":"http://hl7.org/fhir/us/core/StructureDefinition/us-core-ethnicity","extension":[{"url":"ombCategory","valueCoding":{"system":"urn:oid:2.16.840.1.113883.6.238","code":"2135-2","display":"Hispanic or Latino","userSelected":true}},{"url":"text","valueString":"Hispanic or Latino"}]}],"identifier":[{"type":{"coding":[{"system":"http://terminology.hl7.org/CodeSystem/v2-0203","code":"MR"}]},"system":"https://bonnie-fhir.healthit.gov/","value":"6129133302c62a011f2e654a"}],"active":true,"name":[{"use":"usual","family":"DENOMPass","given":["PrinDxIschemicStk"]}],"gender":"male","birthDate":"2003-08-20"},"request":{"method":"PUT","url":"Patient/25d18013-063a-44c1-a418-111e9cc00421"}},{"fullUrl":"https://madie.cms.gov/Encounter/aa9bac66-d453-4ceb-ace4-4704fdba4eb0","resource":{"resourceType":"Encounter","id":"aa9bac66-d453-4ceb-ace4-4704fdba4eb0","meta":{"profile":["http://hl7.org/fhir/us/qicore/StructureDefinition/qicore-encounter"]},"status":"finished","class":{"system":"http://terminology.hl7.org/CodeSystem/v3-ActCode","code":"IMP","display":"inpatient encounter","userSelected":true},"type":[{"coding":[{"system":"http://snomed.info/sct","code":"32485007"}]}],"subject":{"reference":"Patient/25d18013-063a-44c1-a418-111e9cc00421"},"period":{"start":"2025-08-21T00:00:00.000+00:00","end":"2025-12-19T08:15:00.000+00:00"},"length":{"value":120,"unit":"days"},"diagnosis":[{"condition":{"reference":"Condition/16478130-8c25-46ce-be17-998fd9b0d755"},"use":{"coding":[{"system":"http://terminology.hl7.org/CodeSystem/diagnosis-role","code":"billing","display":"Billing"}]},"rank":1}]},"request":{"method":"PUT","url":"Encounter/aa9bac66-d453-4ceb-ace4-4704fdba4eb0"}},{"fullUrl":"https://madie.cms.gov/Condition/16478130-8c25-46ce-be17-998fd9b0d755","resource":{"resourceType":"Condition","id":"16478130-8c25-46ce-be17-998fd9b0d755","meta":{"profile":["http://hl7.org/fhir/us/qicore/StructureDefinition/qicore-condition"]},"clinicalStatus":{"coding":[{"system":"http://terminology.hl7.org/CodeSystem/condition-clinical","code":"active"}]},"verificationStatus":{"coding":[{"system":"http://terminology.hl7.org/CodeSystem/condition-ver-status","code":"confirmed"}]},"category":[{"coding":[{"system":"http://terminology.hl7.org/CodeSystem/condition-category","code":"encounter-diagnosis","display":"Encounter Diagnosis"}]}],"code":{"coding":[{"system":"http://snomed.info/sct","version":"2020-09","code":"111297002","display":"Nonparalytic stroke (disorder)","userSelected":true}]},"subject":{"reference":"Patient/25d18013-063a-44c1-a418-111e9cc00421"},"recordedDate":"2025-11-23T08:00:00.000+00:00"},"request":{"method":"PUT","url":"Condition/16478130-8c25-46ce-be17-998fd9b0d755"}},{"fullUrl":"https://madie.cms.gov/Coverage/a8e11bba-7537-4fae-ba65-4146f117607a","resource":{"resourceType":"Coverage","id":"a8e11bba-7537-4fae-ba65-4146f117607a","meta":{"profile":["http://hl7.org/fhir/us/qicore/StructureDefinition/qicore-coverage"]},"status":"active","beneficiary":{"reference":"Patient/25d18013-063a-44c1-a418-111e9cc00421"},"payor":[{"reference":"Organization/4a1aacb1-12a2-44ea-8545-01c7a8cd6796"}]},"request":{"method":"PUT","url":"Coverage/a8e11bba-7537-4fae-ba65-4146f117607a"}},{"fullUrl":"https://madie.cms.gov/Organization/4a1aacb1-12a2-44ea-8545-01c7a8cd6796","resource":{"resourceType":"Organization","id":"4a1aacb1-12a2-44ea-8545-01c7a8cd6796","meta":{"profile":["http://hl7.org/fhir/us/qicore/StructureDefinition/qicore-organization"]},"identifier":[{"use":"temp","system":"urn:oid:2.16.840.1.113883.4.4","value":"21-3259825"}],"active":true,"type":[{"coding":[{"system":"http://terminology.hl7.org/CodeSystem/organization-type","code":"pay","display":"Payer"}]}],"name":"Blue Cross Blue Shield of Texas","telecom":[{"system":"phone","value":"(+1) 972-766-6900"}],"address":[{"use":"billing","type":"postal","line":["P.O. Box 660044"],"city":"Dallas","state":"TX","postalCode":"75266-0044","country":"USA"}]},"request":{"method":"PUT","url":"Organization/4a1aacb1-12a2-44ea-8545-01c7a8cd6796"}},{"fullUrl":"https://madie.cms.gov/MeasureReport/fe311f1a-494e-4801-a4d5-ce1de6d19836","resource":{"resourceType":"MeasureReport","id":"fe311f1a-494e-4801-a4d5-ce1de6d19836","meta":{"profile":["http://hl7.org/fhir/us/cqfmeasures/StructureDefinition/test-case-cqfm"]},"contained":[{"resourceType":"Parameters","id":"48c4f24d-ab89-4a3d-8e24-b83cb1d300c5-parameters","parameter":[{"name":"subject","valueString":"25d18013-063a-44c1-a418-111e9cc00421"}]}],"extension":[{"url":"http://hl7.org/fhir/us/cqfmeasures/StructureDefinition/cqfm-inputParameters","valueReference":{"reference":"#48c4f24d-ab89-4a3d-8e24-b83cb1d300c5-parameters"}},{"url":"http://hl7.org/fhir/us/cqfmeasures/StructureDefinition/cqfm-testCaseDescription","valueMarkdown":"Patient turns 18 day before admission with Non-Elective Inpatient Encounter ends during MP with principal diagnosis of stroke"}],"modifierExtension":[{"url":"http://hl7.org/fhir/us/cqfmeasures/StructureDefinition/cqfm-isTestCase","valueBoolean":true}],"status":"complete","type":"individual","measure":"https://madie.cms.gov/Measure/DischargedonAntithromboticTherapyFHIR","period":{"start":"2025-01-01","end":"2025-12-31"},"group":[{"population":[{"code":{"coding":[{"system":"http://terminology.hl7.org/CodeSystem/measure-population","code":"initial-population","display":"Initial Population"}]},"count":1},{"code":{"coding":[{"system":"http://terminology.hl7.org/CodeSystem/measure-population","code":"denominator","display":"Denominator"}]},"count":1},{"code":{"coding":[{"system":"http://terminology.hl7.org/CodeSystem/measure-population","code":"denominator-exclusion","display":"Denominator Exclusion"}]},"count":0},{"code":{"coding":[{"system":"http://terminology.hl7.org/CodeSystem/measure-population","code":"numerator","display":"Numerator"}]},"count":0},{"code":{"coding":[{"system":"http://terminology.hl7.org/CodeSystem/measure-population","code":"denominator-exception","display":"Denominator Exception"}]},"count":0}]}],"evaluatedResource":[{"reference":"Patient/25d18013-063a-44c1-a418-111e9cc00421"},{"reference":"Encounter/aa9bac66-d453-4ceb-ace4-4704fdba4eb0"},{"reference":"Condition/16478130-8c25-46ce-be17-998fd9b0d755"},{"reference":"Coverage/a8e11bba-7537-4fae-ba65-4146f117607a"},{"reference":"Organization/4a1aacb1-12a2-44ea-8545-01c7a8cd6796"}]},"request":{"method":"PUT","url":"MeasureReport/fe311f1a-494e-4801-a4d5-ce1de6d19836"}}]}