{"resourceType":"Bundle","id":"tests-bf3d4e66-5d74-47da-833c-9db96951de90-bundle","type":"transaction","entry":[{"fullUrl":"https://madie.cms.gov/Patient/bf3d4e66-5d74-47da-833c-9db96951de90","resource":{"resourceType":"Patient","id":"bf3d4e66-5d74-47da-833c-9db96951de90","meta":{"profile":["http://hl7.org/fhir/us/qicore/StructureDefinition/qicore-patient"]},"text":{"status":"generated","div":"<div xmlns=\"http://www.w3.org/1999/xhtml\"><div class=\"hapiHeaderText\"> CMOdurObs_ED&lt;1hrObs=1hrBFEnc <b>DENEXPASS </b></div><table class=\"hapiPropertyTable\"><tbody><tr><td>Identifier</td><td>dc7e6049ea43f7ad31b61fb7a8136fca8505eb34b7c74639e804e4d17e525cbe</td></tr><tr><td>Date of birth</td><td><span>21 August 1994</span></td></tr></tbody></table></div>"},"extension":[{"url":"http://hl7.org/fhir/us/core/StructureDefinition/us-core-race","extension":[{"url":"ombCategory","valueCoding":{"system":"urn:oid:2.16.840.1.113883.6.238","code":"1002-5","display":"American Indian or Alaska Native","userSelected":true}},{"url":"text","valueString":"American Indian or Alaska Native"}]},{"url":"http://hl7.org/fhir/us/core/StructureDefinition/us-core-ethnicity","extension":[{"url":"ombCategory","valueCoding":{"system":"urn:oid:2.16.840.1.113883.6.238","code":"2135-2","display":"Hispanic or Latino","userSelected":true}},{"url":"text","valueString":"Hispanic or Latino"}]}],"identifier":[{"type":{"coding":[{"system":"http://terminology.hl7.org/CodeSystem/v2-0203","code":"MR"}]},"system":"https://bonnie-fhir.healthit.gov/","value":"6129134802c62a011f2e6ecd"}],"active":true,"name":[{"use":"usual","family":"DENEXPass","given":["CMOdurObs_ED<1hrObs=1hrBFEnc"]}],"gender":"male","birthDate":"1994-08-21"},"request":{"method":"PUT","url":"Patient/bf3d4e66-5d74-47da-833c-9db96951de90"}},{"fullUrl":"https://madie.cms.gov/Encounter/564340b9-d878-4d9a-9725-063c159c20c9","resource":{"resourceType":"Encounter","id":"564340b9-d878-4d9a-9725-063c159c20c9","meta":{"profile":["http://hl7.org/fhir/us/qicore/StructureDefinition/qicore-encounter"]},"status":"finished","class":{"system":"http://terminology.hl7.org/CodeSystem/v3-ActCode","code":"EMER","display":"emergency","userSelected":true},"type":[{"coding":[{"system":"http://snomed.info/sct","code":"4525004"}]}],"subject":{"reference":"Patient/bf3d4e66-5d74-47da-833c-9db96951de90"},"period":{"start":"2025-10-10T07:30:00.000+00:00","end":"2025-10-10T08:00:00.000+00:00"},"length":{"value":0,"unit":"days"}},"request":{"method":"PUT","url":"Encounter/564340b9-d878-4d9a-9725-063c159c20c9"}},{"fullUrl":"https://madie.cms.gov/Encounter/579ab7df-a381-4814-9094-6973e3478338","resource":{"resourceType":"Encounter","id":"579ab7df-a381-4814-9094-6973e3478338","meta":{"profile":["http://hl7.org/fhir/us/qicore/StructureDefinition/qicore-encounter"]},"status":"finished","class":{"system":"http://terminology.hl7.org/CodeSystem/v3-ActCode","code":"OBSENC","display":"observation encounter","userSelected":true},"type":[{"coding":[{"system":"http://snomed.info/sct","code":"448951000124107"}]}],"subject":{"reference":"Patient/bf3d4e66-5d74-47da-833c-9db96951de90"},"period":{"start":"2025-10-10T08:01:00.000+00:00","end":"2025-10-10T08:05:00.000+00:00"},"length":{"value":0,"unit":"days"}},"request":{"method":"PUT","url":"Encounter/579ab7df-a381-4814-9094-6973e3478338"}},{"fullUrl":"https://madie.cms.gov/Encounter/19e9a9dd-44a6-471c-836d-8eca93d5d65f","resource":{"resourceType":"Encounter","id":"19e9a9dd-44a6-471c-836d-8eca93d5d65f","meta":{"profile":["http://hl7.org/fhir/us/qicore/StructureDefinition/qicore-encounter"]},"status":"finished","class":{"system":"http://terminology.hl7.org/CodeSystem/v3-ActCode","code":"IMP","display":"inpatient encounter","userSelected":true},"type":[{"coding":[{"system":"http://snomed.info/sct","code":"32485007"}]}],"subject":{"reference":"Patient/bf3d4e66-5d74-47da-833c-9db96951de90"},"period":{"start":"2025-10-10T09:05:00.000+00:00","end":"2025-10-12T10:30:00.000+00:00"},"length":{"value":2,"unit":"days"},"diagnosis":[{"condition":{"reference":"Condition/4e083f48-2378-4f6c-a6ac-f4354b1cda06"},"use":{"coding":[{"system":"http://terminology.hl7.org/CodeSystem/diagnosis-role","code":"billing","display":"Billing"}]},"rank":1}]},"request":{"method":"PUT","url":"Encounter/19e9a9dd-44a6-471c-836d-8eca93d5d65f"}},{"fullUrl":"https://madie.cms.gov/ServiceRequest/c5ffd992-fbfa-48db-9f7b-cceb3a531297","resource":{"resourceType":"ServiceRequest","id":"c5ffd992-fbfa-48db-9f7b-cceb3a531297","meta":{"profile":["http://hl7.org/fhir/us/qicore/StructureDefinition/qicore-servicerequest"]},"status":"active","intent":"order","code":{"coding":[{"system":"http://snomed.info/sct","code":"133918004"}]},"subject":{"reference":"Patient/bf3d4e66-5d74-47da-833c-9db96951de90"},"authoredOn":"2025-10-10T08:01:00.000+00:00"},"request":{"method":"PUT","url":"ServiceRequest/c5ffd992-fbfa-48db-9f7b-cceb3a531297"}},{"fullUrl":"https://madie.cms.gov/Condition/4e083f48-2378-4f6c-a6ac-f4354b1cda06","resource":{"resourceType":"Condition","id":"4e083f48-2378-4f6c-a6ac-f4354b1cda06","meta":{"profile":["http://hl7.org/fhir/us/qicore/StructureDefinition/qicore-condition"]},"clinicalStatus":{"coding":[{"system":"http://terminology.hl7.org/CodeSystem/condition-clinical","code":"active"}]},"verificationStatus":{"coding":[{"system":"http://terminology.hl7.org/CodeSystem/condition-ver-status","code":"confirmed"}]},"category":[{"coding":[{"system":"http://terminology.hl7.org/CodeSystem/condition-category","code":"encounter-diagnosis","display":"Encounter Diagnosis"}]}],"code":{"coding":[{"system":"http://snomed.info/sct","version":"2020-09","code":"111297002","display":"Nonparalytic stroke (disorder)","userSelected":true}]},"subject":{"reference":"Patient/bf3d4e66-5d74-47da-833c-9db96951de90"},"recordedDate":"2025-07-14T08:00:00.000+00:00"},"request":{"method":"PUT","url":"Condition/4e083f48-2378-4f6c-a6ac-f4354b1cda06"}},{"fullUrl":"https://madie.cms.gov/MeasureReport/e1ba6707-d444-46c7-ab72-05867b8afe39","resource":{"resourceType":"MeasureReport","id":"e1ba6707-d444-46c7-ab72-05867b8afe39","meta":{"profile":["http://hl7.org/fhir/us/cqfmeasures/StructureDefinition/test-case-cqfm"]},"contained":[{"resourceType":"Parameters","id":"dfceb918-465a-4a1d-9aa7-142d692efa06-parameters","parameter":[{"name":"subject","valueString":"bf3d4e66-5d74-47da-833c-9db96951de90"}]}],"extension":[{"url":"http://hl7.org/fhir/us/cqfmeasures/StructureDefinition/cqfm-inputParameters","valueReference":{"reference":"#dfceb918-465a-4a1d-9aa7-142d692efa06-parameters"}},{"url":"http://hl7.org/fhir/us/cqfmeasures/StructureDefinition/cqfm-testCaseDescription","valueMarkdown":"Patient receives CMO during observation.ED ends 1 min before Obs. Obs ends 60 min before inpatient encounter start. Testing day of operator with HospitalizationWithObservation function."}],"modifierExtension":[{"url":"http://hl7.org/fhir/us/cqfmeasures/StructureDefinition/cqfm-isTestCase","valueBoolean":true}],"status":"complete","type":"individual","measure":"https://madie.cms.gov/Measure/DischargedonAntithromboticTherapyFHIR","period":{"start":"2025-01-01","end":"2025-12-31"},"group":[{"population":[{"code":{"coding":[{"system":"http://terminology.hl7.org/CodeSystem/measure-population","code":"initial-population","display":"Initial Population"}]},"count":1},{"code":{"coding":[{"system":"http://terminology.hl7.org/CodeSystem/measure-population","code":"denominator","display":"Denominator"}]},"count":1},{"code":{"coding":[{"system":"http://terminology.hl7.org/CodeSystem/measure-population","code":"denominator-exclusion","display":"Denominator Exclusion"}]},"count":1},{"code":{"coding":[{"system":"http://terminology.hl7.org/CodeSystem/measure-population","code":"numerator","display":"Numerator"}]},"count":0},{"code":{"coding":[{"system":"http://terminology.hl7.org/CodeSystem/measure-population","code":"denominator-exception","display":"Denominator Exception"}]},"count":0}]}],"evaluatedResource":[{"reference":"Patient/bf3d4e66-5d74-47da-833c-9db96951de90"},{"reference":"Encounter/564340b9-d878-4d9a-9725-063c159c20c9"},{"reference":"Encounter/579ab7df-a381-4814-9094-6973e3478338"},{"reference":"Encounter/19e9a9dd-44a6-471c-836d-8eca93d5d65f"},{"reference":"ServiceRequest/c5ffd992-fbfa-48db-9f7b-cceb3a531297"},{"reference":"Condition/4e083f48-2378-4f6c-a6ac-f4354b1cda06"}]},"request":{"method":"PUT","url":"MeasureReport/e1ba6707-d444-46c7-ab72-05867b8afe39"}}]}