{"resourceType":"Bundle","id":"tests-1061a4b1-566a-4d37-bd31-75ccc83578aa-bundle","type":"transaction","entry":[{"fullUrl":"https://madie.cms.gov/Patient/1061a4b1-566a-4d37-bd31-75ccc83578aa","resource":{"resourceType":"Patient","id":"1061a4b1-566a-4d37-bd31-75ccc83578aa","meta":{"profile":["http://hl7.org/fhir/us/qicore/StructureDefinition/qicore-patient"]},"text":{"status":"generated","div":"<div xmlns=\"http://www.w3.org/1999/xhtml\"><div class=\"hapiHeaderText\">CMOBFEnc_NoEDNoObsBFEnc <b>DENEXFAIL </b></div><table class=\"hapiPropertyTable\"><tbody><tr><td>Identifier</td><td>cce7eb78644dd7c9beed6d1cbc39871e</td></tr><tr><td>Date of birth</td><td><span>21 August 1994</span></td></tr></tbody></table></div>"},"extension":[{"url":"http://hl7.org/fhir/us/core/StructureDefinition/us-core-race","extension":[{"url":"ombCategory","valueCoding":{"system":"urn:oid:2.16.840.1.113883.6.238","code":"1002-5","display":"American Indian or Alaska Native","userSelected":true}},{"url":"text","valueString":"American Indian or Alaska Native"}]},{"url":"http://hl7.org/fhir/us/core/StructureDefinition/us-core-ethnicity","extension":[{"url":"ombCategory","valueCoding":{"system":"urn:oid:2.16.840.1.113883.6.238","code":"2135-2","display":"Hispanic or Latino","userSelected":true}},{"url":"text","valueString":"Hispanic or Latino"}]}],"identifier":[{"type":{"coding":[{"system":"http://terminology.hl7.org/CodeSystem/v2-0203","code":"MR"}]},"system":"https://bonnie-fhir.healthit.gov/","value":"6129133b02c62a011f2e68a0"}],"active":true,"name":[{"use":"usual","family":"DENEXFail","given":["CMOBFEnc_NoEDNoObsBFEnc"]}],"gender":"male","birthDate":"1994-08-21"},"request":{"method":"PUT","url":"Patient/1061a4b1-566a-4d37-bd31-75ccc83578aa"}},{"fullUrl":"https://madie.cms.gov/Encounter/e29a8564-3f80-4bf6-8417-5687119d5d3e","resource":{"resourceType":"Encounter","id":"e29a8564-3f80-4bf6-8417-5687119d5d3e","meta":{"profile":["http://hl7.org/fhir/us/qicore/StructureDefinition/qicore-encounter"]},"status":"finished","class":{"system":"http://terminology.hl7.org/CodeSystem/v3-ActCode","code":"IMP","display":"inpatient encounter","userSelected":true},"type":[{"coding":[{"system":"http://snomed.info/sct","code":"32485007"}]}],"subject":{"reference":"Patient/1061a4b1-566a-4d37-bd31-75ccc83578aa"},"period":{"start":"2025-10-10T09:30:00.000+00:00","end":"2025-10-12T10:30:00.000+00:00"},"length":{"value":2,"unit":"days"},"diagnosis":[{"condition":{"reference":"Condition/3daea90c-2e7a-4de2-bb92-772cf48e13bc"},"use":{"coding":[{"system":"http://terminology.hl7.org/CodeSystem/diagnosis-role","code":"billing","display":"Billing"}]},"rank":1}]},"request":{"method":"PUT","url":"Encounter/e29a8564-3f80-4bf6-8417-5687119d5d3e"}},{"fullUrl":"https://madie.cms.gov/ServiceRequest/6440644e-3c9a-4ce6-aabd-9b4af41a1e44","resource":{"resourceType":"ServiceRequest","id":"6440644e-3c9a-4ce6-aabd-9b4af41a1e44","meta":{"profile":["http://hl7.org/fhir/us/qicore/StructureDefinition/qicore-servicerequest"]},"status":"active","intent":"order","code":{"coding":[{"system":"http://snomed.info/sct","code":"133918004"}]},"subject":{"reference":"Patient/1061a4b1-566a-4d37-bd31-75ccc83578aa"},"authoredOn":"2025-10-10T09:29:00.000+00:00"},"request":{"method":"PUT","url":"ServiceRequest/6440644e-3c9a-4ce6-aabd-9b4af41a1e44"}},{"fullUrl":"https://madie.cms.gov/Condition/3daea90c-2e7a-4de2-bb92-772cf48e13bc","resource":{"resourceType":"Condition","id":"3daea90c-2e7a-4de2-bb92-772cf48e13bc","meta":{"profile":["http://hl7.org/fhir/us/qicore/StructureDefinition/qicore-condition"]},"clinicalStatus":{"coding":[{"system":"http://terminology.hl7.org/CodeSystem/condition-clinical","code":"active"}]},"verificationStatus":{"coding":[{"system":"http://terminology.hl7.org/CodeSystem/condition-ver-status","code":"confirmed"}]},"category":[{"coding":[{"system":"http://terminology.hl7.org/CodeSystem/condition-category","code":"encounter-diagnosis","display":"Encounter Diagnosis"}]}],"code":{"coding":[{"system":"http://snomed.info/sct","version":"2020-09","code":"111297002","display":"Nonparalytic stroke (disorder)","userSelected":true}]},"subject":{"reference":"Patient/1061a4b1-566a-4d37-bd31-75ccc83578aa"},"recordedDate":"2025-07-14T08:00:00.000+00:00"},"request":{"method":"PUT","url":"Condition/3daea90c-2e7a-4de2-bb92-772cf48e13bc"}},{"fullUrl":"https://madie.cms.gov/Coverage/5bb8996a-0b30-4e29-a2e6-993be7b27267","resource":{"resourceType":"Coverage","id":"5bb8996a-0b30-4e29-a2e6-993be7b27267","meta":{"profile":["http://hl7.org/fhir/us/qicore/StructureDefinition/qicore-coverage"]},"status":"active","beneficiary":{"reference":"Patient/1061a4b1-566a-4d37-bd31-75ccc83578aa"},"payor":[{"reference":"Organization/c9d1bcdd-90d3-4d18-bcd1-09b4423b541e"}]},"request":{"method":"PUT","url":"Coverage/5bb8996a-0b30-4e29-a2e6-993be7b27267"}},{"fullUrl":"https://madie.cms.gov/Organization/c9d1bcdd-90d3-4d18-bcd1-09b4423b541e","resource":{"resourceType":"Organization","id":"c9d1bcdd-90d3-4d18-bcd1-09b4423b541e","meta":{"profile":["http://hl7.org/fhir/us/qicore/StructureDefinition/qicore-organization"]},"identifier":[{"use":"temp","system":"urn:oid:2.16.840.1.113883.4.4","value":"21-3259825"}],"active":true,"type":[{"coding":[{"system":"http://terminology.hl7.org/CodeSystem/organization-type","code":"pay","display":"Payer"}]}],"name":"Blue Cross Blue Shield of Texas","telecom":[{"system":"phone","value":"(+1) 972-766-6900"}],"address":[{"use":"billing","type":"postal","line":["P.O. Box 660044"],"city":"Dallas","state":"TX","postalCode":"75266-0044","country":"USA"}]},"request":{"method":"PUT","url":"Organization/c9d1bcdd-90d3-4d18-bcd1-09b4423b541e"}},{"fullUrl":"https://madie.cms.gov/MeasureReport/c85bf3e8-b038-4a14-afa4-40821d3e93ee","resource":{"resourceType":"MeasureReport","id":"c85bf3e8-b038-4a14-afa4-40821d3e93ee","meta":{"profile":["http://hl7.org/fhir/us/cqfmeasures/StructureDefinition/test-case-cqfm"]},"contained":[{"resourceType":"Parameters","id":"355cf0c0-9e91-4717-9985-89d372cee277-parameters","parameter":[{"name":"subject","valueString":"1061a4b1-566a-4d37-bd31-75ccc83578aa"}]}],"extension":[{"url":"http://hl7.org/fhir/us/cqfmeasures/StructureDefinition/cqfm-inputParameters","valueReference":{"reference":"#355cf0c0-9e91-4717-9985-89d372cee277-parameters"}},{"url":"http://hl7.org/fhir/us/cqfmeasures/StructureDefinition/cqfm-testCaseDescription","valueMarkdown":"Patient receives CMO before inpatient encounter. No ED. No Obs. Testing HospitalizationWithObservation Function.\n"}],"modifierExtension":[{"url":"http://hl7.org/fhir/us/cqfmeasures/StructureDefinition/cqfm-isTestCase","valueBoolean":true}],"status":"complete","type":"individual","measure":"https://madie.cms.gov/Measure/DischargedonAntithromboticTherapyFHIR","period":{"start":"2025-01-01","end":"2025-12-31"},"group":[{"population":[{"code":{"coding":[{"system":"http://terminology.hl7.org/CodeSystem/measure-population","code":"initial-population","display":"Initial Population"}]},"count":1},{"code":{"coding":[{"system":"http://terminology.hl7.org/CodeSystem/measure-population","code":"denominator","display":"Denominator"}]},"count":1},{"code":{"coding":[{"system":"http://terminology.hl7.org/CodeSystem/measure-population","code":"denominator-exclusion","display":"Denominator Exclusion"}]},"count":0},{"code":{"coding":[{"system":"http://terminology.hl7.org/CodeSystem/measure-population","code":"numerator","display":"Numerator"}]},"count":0},{"code":{"coding":[{"system":"http://terminology.hl7.org/CodeSystem/measure-population","code":"denominator-exception","display":"Denominator Exception"}]},"count":0}]}],"evaluatedResource":[{"reference":"Patient/1061a4b1-566a-4d37-bd31-75ccc83578aa"},{"reference":"Encounter/e29a8564-3f80-4bf6-8417-5687119d5d3e"},{"reference":"ServiceRequest/6440644e-3c9a-4ce6-aabd-9b4af41a1e44"},{"reference":"Condition/3daea90c-2e7a-4de2-bb92-772cf48e13bc"},{"reference":"Coverage/5bb8996a-0b30-4e29-a2e6-993be7b27267"},{"reference":"Organization/c9d1bcdd-90d3-4d18-bcd1-09b4423b541e"}]},"request":{"method":"PUT","url":"MeasureReport/c85bf3e8-b038-4a14-afa4-40821d3e93ee"}}]}