{"resourceType":"Bundle","id":"tests-b6d15864-fd0e-4920-aab8-e3d384ee9d3b-bundle","type":"transaction","entry":[{"fullUrl":"https://madie.cms.gov/Patient/b6d15864-fd0e-4920-aab8-e3d384ee9d3b","resource":{"resourceType":"Patient","id":"b6d15864-fd0e-4920-aab8-e3d384ee9d3b","meta":{"profile":["http://hl7.org/fhir/us/qicore/StructureDefinition/qicore-patient"]},"text":{"status":"generated","div":"<div xmlns=\"http://www.w3.org/1999/xhtml\"><div class=\"hapiHeaderText\">PharmContraDurEncStart_NoEDNoObsBFEnc <b>DENEXCEPPASS </b></div><table class=\"hapiPropertyTable\"><tbody><tr><td>Identifier</td><td>628c16cb856e01c2b8ceb8d682e71bf77cc3847841c023a61cc3ea0e750edfca</td></tr><tr><td>Date of birth</td><td><span>21 August 1994</span></td></tr></tbody></table></div>"},"extension":[{"url":"http://hl7.org/fhir/us/core/StructureDefinition/us-core-race","extension":[{"url":"ombCategory","valueCoding":{"system":"urn:oid:2.16.840.1.113883.6.238","code":"1002-5","display":"American Indian or Alaska Native","userSelected":true}},{"url":"text","valueString":"American Indian or Alaska Native"}]},{"url":"http://hl7.org/fhir/us/core/StructureDefinition/us-core-ethnicity","extension":[{"url":"ombCategory","valueCoding":{"system":"urn:oid:2.16.840.1.113883.6.238","code":"2135-2","display":"Hispanic or Latino","userSelected":true}},{"url":"text","valueString":"Hispanic or Latino"}]}],"identifier":[{"type":{"coding":[{"system":"http://terminology.hl7.org/CodeSystem/v2-0203","code":"MR"}]},"system":"https://bonnie-fhir.healthit.gov/","value":"6129135202c62a011f2e73a2"}],"active":true,"name":[{"use":"usual","family":"DENEXCEPPass","given":["PharmContraDurEncStart_NoEDNoObsBFEnc"]}],"gender":"male","birthDate":"1994-08-21"},"request":{"method":"PUT","url":"Patient/b6d15864-fd0e-4920-aab8-e3d384ee9d3b"}},{"fullUrl":"https://madie.cms.gov/Encounter/d116d060-f0c5-43da-9634-33a8d5e9eb9d","resource":{"resourceType":"Encounter","id":"d116d060-f0c5-43da-9634-33a8d5e9eb9d","meta":{"profile":["http://hl7.org/fhir/us/qicore/StructureDefinition/qicore-encounter"]},"status":"finished","class":{"system":"http://terminology.hl7.org/CodeSystem/v3-ActCode","code":"IMP","display":"inpatient encounter","userSelected":true},"type":[{"coding":[{"system":"http://snomed.info/sct","code":"32485007"}]}],"subject":{"reference":"Patient/b6d15864-fd0e-4920-aab8-e3d384ee9d3b"},"period":{"start":"2025-10-10T09:30:00.000+00:00","end":"2025-10-12T10:30:00.000+00:00"},"length":{"value":2,"unit":"days"},"diagnosis":[{"condition":{"reference":"Condition/62cfd467-2ae6-4282-a804-c627dbd23c52"},"use":{"coding":[{"system":"http://terminology.hl7.org/CodeSystem/diagnosis-role","code":"billing","display":"Billing"}]},"rank":1}]},"request":{"method":"PUT","url":"Encounter/d116d060-f0c5-43da-9634-33a8d5e9eb9d"}},{"fullUrl":"https://madie.cms.gov/MedicationRequest/a3cf6d95-259f-49f3-8b87-3492cc11d5d9","resource":{"resourceType":"MedicationRequest","id":"a3cf6d95-259f-49f3-8b87-3492cc11d5d9","meta":{"profile":["http://hl7.org/fhir/us/qicore/StructureDefinition/qicore-medicationrequest"]},"status":"active","intent":"order","category":[{"coding":[{"system":"http://terminology.hl7.org/CodeSystem/medicationrequest-category","code":"community","display":"Community","userSelected":true}]}],"doNotPerform":false,"medicationCodeableConcept":{"coding":[{"system":"http://www.nlm.nih.gov/research/umls/rxnorm","code":"855812","display":"prasugrel 10 MG Oral Tablet","userSelected":true}]},"subject":{"reference":"Patient/b6d15864-fd0e-4920-aab8-e3d384ee9d3b"},"authoredOn":"2025-10-10T09:30:00.000+00:00","requester":{"reference":"Practitioner/example"}},"request":{"method":"PUT","url":"MedicationRequest/a3cf6d95-259f-49f3-8b87-3492cc11d5d9"}},{"fullUrl":"https://madie.cms.gov/Condition/62cfd467-2ae6-4282-a804-c627dbd23c52","resource":{"resourceType":"Condition","id":"62cfd467-2ae6-4282-a804-c627dbd23c52","meta":{"profile":["http://hl7.org/fhir/us/qicore/StructureDefinition/qicore-condition"]},"clinicalStatus":{"coding":[{"system":"http://terminology.hl7.org/CodeSystem/condition-clinical","code":"active"}]},"verificationStatus":{"coding":[{"system":"http://terminology.hl7.org/CodeSystem/condition-ver-status","code":"confirmed"}]},"category":[{"coding":[{"system":"http://terminology.hl7.org/CodeSystem/condition-category","code":"encounter-diagnosis","display":"Encounter Diagnosis"}]}],"code":{"coding":[{"system":"http://snomed.info/sct","version":"2020-09","code":"111297002","display":"Nonparalytic stroke (disorder)","userSelected":true}]},"subject":{"reference":"Patient/b6d15864-fd0e-4920-aab8-e3d384ee9d3b"},"recordedDate":"2025-07-14T08:00:00.000+00:00"},"request":{"method":"PUT","url":"Condition/62cfd467-2ae6-4282-a804-c627dbd23c52"}},{"fullUrl":"https://madie.cms.gov/Coverage/12376e8f-9e4f-4bbf-8158-e4ac86a1c8cc","resource":{"resourceType":"Coverage","id":"12376e8f-9e4f-4bbf-8158-e4ac86a1c8cc","meta":{"profile":["http://hl7.org/fhir/us/qicore/StructureDefinition/qicore-coverage"]},"status":"active","beneficiary":{"reference":"Patient/b6d15864-fd0e-4920-aab8-e3d384ee9d3b"},"payor":[{"reference":"Organization/a5fed9d1-99ad-4fb2-ab4d-50b761c1e6f5"}]},"request":{"method":"PUT","url":"Coverage/12376e8f-9e4f-4bbf-8158-e4ac86a1c8cc"}},{"fullUrl":"https://madie.cms.gov/Organization/a5fed9d1-99ad-4fb2-ab4d-50b761c1e6f5","resource":{"resourceType":"Organization","id":"a5fed9d1-99ad-4fb2-ab4d-50b761c1e6f5","meta":{"profile":["http://hl7.org/fhir/us/qicore/StructureDefinition/qicore-organization"]},"identifier":[{"use":"temp","system":"urn:oid:2.16.840.1.113883.4.4","value":"21-3259825"}],"active":true,"type":[{"coding":[{"system":"http://terminology.hl7.org/CodeSystem/organization-type","code":"pay","display":"Payer"}]}],"name":"Blue Cross Blue Shield of Texas","telecom":[{"system":"phone","value":"(+1) 972-766-6900"}],"address":[{"use":"billing","type":"postal","line":["P.O. Box 660044"],"city":"Dallas","state":"TX","postalCode":"75266-0044","country":"USA"}]},"request":{"method":"PUT","url":"Organization/a5fed9d1-99ad-4fb2-ab4d-50b761c1e6f5"}},{"fullUrl":"https://madie.cms.gov/MeasureReport/8d85d88f-322f-400d-a2f2-5fa17e56592e","resource":{"resourceType":"MeasureReport","id":"8d85d88f-322f-400d-a2f2-5fa17e56592e","meta":{"profile":["http://hl7.org/fhir/us/cqfmeasures/StructureDefinition/test-case-cqfm"]},"contained":[{"resourceType":"Parameters","id":"8229beea-bc89-442e-b9fd-f23abbfe702f-parameters","parameter":[{"name":"subject","valueString":"b6d15864-fd0e-4920-aab8-e3d384ee9d3b"}]}],"extension":[{"url":"http://hl7.org/fhir/us/cqfmeasures/StructureDefinition/cqfm-inputParameters","valueReference":{"reference":"#8229beea-bc89-442e-b9fd-f23abbfe702f-parameters"}},{"url":"http://hl7.org/fhir/us/cqfmeasures/StructureDefinition/cqfm-testCaseDescription","valueMarkdown":"testing is community added Billing"}],"modifierExtension":[{"url":"http://hl7.org/fhir/us/cqfmeasures/StructureDefinition/cqfm-isTestCase","valueBoolean":true}],"status":"complete","type":"individual","measure":"https://madie.cms.gov/Measure/DischargedonAntithromboticTherapyFHIR","period":{"start":"2025-01-01","end":"2025-12-31"},"group":[{"population":[{"code":{"coding":[{"system":"http://terminology.hl7.org/CodeSystem/measure-population","code":"initial-population","display":"Initial Population"}]},"count":1},{"code":{"coding":[{"system":"http://terminology.hl7.org/CodeSystem/measure-population","code":"denominator","display":"Denominator"}]},"count":1},{"code":{"coding":[{"system":"http://terminology.hl7.org/CodeSystem/measure-population","code":"denominator-exclusion","display":"Denominator Exclusion"}]},"count":0},{"code":{"coding":[{"system":"http://terminology.hl7.org/CodeSystem/measure-population","code":"numerator","display":"Numerator"}]},"count":0},{"code":{"coding":[{"system":"http://terminology.hl7.org/CodeSystem/measure-population","code":"denominator-exception","display":"Denominator Exception"}]},"count":1}]}],"evaluatedResource":[{"reference":"Patient/b6d15864-fd0e-4920-aab8-e3d384ee9d3b"},{"reference":"Encounter/d116d060-f0c5-43da-9634-33a8d5e9eb9d"},{"reference":"MedicationRequest/a3cf6d95-259f-49f3-8b87-3492cc11d5d9"},{"reference":"Condition/62cfd467-2ae6-4282-a804-c627dbd23c52"},{"reference":"Coverage/12376e8f-9e4f-4bbf-8158-e4ac86a1c8cc"},{"reference":"Organization/a5fed9d1-99ad-4fb2-ab4d-50b761c1e6f5"}]},"request":{"method":"PUT","url":"MeasureReport/8d85d88f-322f-400d-a2f2-5fa17e56592e"}}]}