{"resourceType":"Bundle","id":"tests-11f4140c-4345-41f7-a675-eb97730d1b75-bundle","type":"transaction","entry":[{"fullUrl":"https://madie.cms.gov/Patient/11f4140c-4345-41f7-a675-eb97730d1b75","resource":{"resourceType":"Patient","id":"11f4140c-4345-41f7-a675-eb97730d1b75","meta":{"profile":["http://hl7.org/fhir/us/qicore/StructureDefinition/qicore-patient"]},"text":{"status":"generated","div":"<div xmlns=\"http://www.w3.org/1999/xhtml\"><div class=\"hapiHeaderText\">PharmContraAfterEncEnd_NoEDNoObsBFEnc <b>DENEXCEPFAIL </b></div><table class=\"hapiPropertyTable\"><tbody><tr><td>Identifier</td><td>628c16cb856e01c2b8ceb8d682e71bf77cc3847841c023a61cc3ea0e750edfca</td></tr><tr><td>Date of birth</td><td><span>21 August 1994</span></td></tr></tbody></table></div>"},"extension":[{"url":"http://hl7.org/fhir/us/core/StructureDefinition/us-core-race","extension":[{"url":"ombCategory","valueCoding":{"system":"urn:oid:2.16.840.1.113883.6.238","code":"1002-5","display":"American Indian or Alaska Native","userSelected":true}},{"url":"text","valueString":"American Indian or Alaska Native"}]},{"url":"http://hl7.org/fhir/us/core/StructureDefinition/us-core-ethnicity","extension":[{"url":"ombCategory","valueCoding":{"system":"urn:oid:2.16.840.1.113883.6.238","code":"2135-2","display":"Hispanic or Latino","userSelected":true}},{"url":"text","valueString":"Hispanic or Latino"}]}],"identifier":[{"type":{"coding":[{"system":"http://terminology.hl7.org/CodeSystem/v2-0203","code":"MR"}]},"system":"https://bonnie-fhir.healthit.gov/","value":"6129131202c62a011f2e57c3"}],"active":true,"name":[{"use":"usual","family":"DENEXCEPFail","given":["PharmContraAfterEncEnd_NoEDNoObsBFEnc"]}],"gender":"male","birthDate":"1994-08-21"},"request":{"method":"PUT","url":"Patient/11f4140c-4345-41f7-a675-eb97730d1b75"}},{"fullUrl":"https://madie.cms.gov/Encounter/98f4d6ba-6e11-4f12-a18c-8437ac252fcb","resource":{"resourceType":"Encounter","id":"98f4d6ba-6e11-4f12-a18c-8437ac252fcb","meta":{"profile":["http://hl7.org/fhir/us/qicore/StructureDefinition/qicore-encounter"]},"status":"finished","class":{"system":"http://terminology.hl7.org/CodeSystem/v3-ActCode","code":"IMP","display":"inpatient encounter","userSelected":true},"type":[{"coding":[{"system":"http://snomed.info/sct","code":"32485007"}]}],"subject":{"reference":"Patient/11f4140c-4345-41f7-a675-eb97730d1b75"},"period":{"start":"2025-10-10T09:30:00.000+00:00","end":"2025-10-12T10:30:00.000+00:00"},"length":{"value":2,"unit":"days"},"diagnosis":[{"condition":{"reference":"Condition/bb6028b5-77e0-40e9-9df8-efa782c6a155"},"use":{"coding":[{"system":"http://terminology.hl7.org/CodeSystem/diagnosis-role","code":"billing","display":"Billing"}]},"rank":1}]},"request":{"method":"PUT","url":"Encounter/98f4d6ba-6e11-4f12-a18c-8437ac252fcb"}},{"fullUrl":"https://madie.cms.gov/MedicationRequest/69c38399-2c2e-4369-80e0-ed2a8bc53c6f","resource":{"resourceType":"MedicationRequest","id":"69c38399-2c2e-4369-80e0-ed2a8bc53c6f","meta":{"profile":["http://hl7.org/fhir/us/qicore/StructureDefinition/qicore-medicationrequest"]},"status":"active","intent":"filler-order","medicationCodeableConcept":{"coding":[{"system":"http://www.nlm.nih.gov/research/umls/rxnorm","code":"1116635"}]},"subject":{"reference":"Patient/11f4140c-4345-41f7-a675-eb97730d1b75"},"authoredOn":"2025-10-12T10:31:00.000+00:00","requester":{"reference":"Practitioner/example"}},"request":{"method":"PUT","url":"MedicationRequest/69c38399-2c2e-4369-80e0-ed2a8bc53c6f"}},{"fullUrl":"https://madie.cms.gov/Condition/bb6028b5-77e0-40e9-9df8-efa782c6a155","resource":{"resourceType":"Condition","id":"bb6028b5-77e0-40e9-9df8-efa782c6a155","meta":{"profile":["http://hl7.org/fhir/us/qicore/StructureDefinition/qicore-condition"]},"clinicalStatus":{"coding":[{"system":"http://terminology.hl7.org/CodeSystem/condition-clinical","code":"active"}]},"verificationStatus":{"coding":[{"system":"http://terminology.hl7.org/CodeSystem/condition-ver-status","code":"confirmed"}]},"category":[{"coding":[{"system":"http://terminology.hl7.org/CodeSystem/condition-category","code":"encounter-diagnosis","display":"Encounter Diagnosis"}]}],"code":{"coding":[{"system":"http://snomed.info/sct","version":"2020-09","code":"111297002","display":"Nonparalytic stroke (disorder)","userSelected":true}]},"subject":{"reference":"Patient/11f4140c-4345-41f7-a675-eb97730d1b75"},"recordedDate":"2025-07-13T08:00:00.000+00:00"},"request":{"method":"PUT","url":"Condition/bb6028b5-77e0-40e9-9df8-efa782c6a155"}},{"fullUrl":"https://madie.cms.gov/Coverage/a3028ba4-a319-4ca4-9f02-f1acb0fe109c","resource":{"resourceType":"Coverage","id":"a3028ba4-a319-4ca4-9f02-f1acb0fe109c","meta":{"profile":["http://hl7.org/fhir/us/qicore/StructureDefinition/qicore-coverage"]},"status":"active","beneficiary":{"reference":"Patient/11f4140c-4345-41f7-a675-eb97730d1b75"},"payor":[{"reference":"Organization/f494324c-16c5-4c6c-be31-893cfa49852d"}]},"request":{"method":"PUT","url":"Coverage/a3028ba4-a319-4ca4-9f02-f1acb0fe109c"}},{"fullUrl":"https://madie.cms.gov/Organization/f494324c-16c5-4c6c-be31-893cfa49852d","resource":{"resourceType":"Organization","id":"f494324c-16c5-4c6c-be31-893cfa49852d","meta":{"profile":["http://hl7.org/fhir/us/qicore/StructureDefinition/qicore-organization"]},"identifier":[{"use":"temp","system":"urn:oid:2.16.840.1.113883.4.4","value":"21-3259825"}],"active":true,"type":[{"coding":[{"system":"http://terminology.hl7.org/CodeSystem/organization-type","code":"pay","display":"Payer"}]}],"name":"Blue Cross Blue Shield of Texas","telecom":[{"system":"phone","value":"(+1) 972-766-6900"}],"address":[{"use":"billing","type":"postal","line":["P.O. Box 660044"],"city":"Dallas","state":"TX","postalCode":"75266-0044","country":"USA"}]},"request":{"method":"PUT","url":"Organization/f494324c-16c5-4c6c-be31-893cfa49852d"}},{"fullUrl":"https://madie.cms.gov/MeasureReport/9f3e2ae1-9965-4890-8f81-d1a3f2a958b1","resource":{"resourceType":"MeasureReport","id":"9f3e2ae1-9965-4890-8f81-d1a3f2a958b1","meta":{"profile":["http://hl7.org/fhir/us/cqfmeasures/StructureDefinition/test-case-cqfm"]},"contained":[{"resourceType":"Parameters","id":"7f25b116-b78e-44c8-a8f1-ace6a9a5af17-parameters","parameter":[{"name":"subject","valueString":"11f4140c-4345-41f7-a675-eb97730d1b75"}]}],"extension":[{"url":"http://hl7.org/fhir/us/cqfmeasures/StructureDefinition/cqfm-inputParameters","valueReference":{"reference":"#7f25b116-b78e-44c8-a8f1-ace6a9a5af17-parameters"}},{"url":"http://hl7.org/fhir/us/cqfmeasures/StructureDefinition/cqfm-testCaseDescription","valueMarkdown":"Patient receives Ticagrelor after inpatient encounter. No ED. No Observation. Testing medication data type for HospitalizationWithObservation function. See CMO test cases since timing is the same."}],"modifierExtension":[{"url":"http://hl7.org/fhir/us/cqfmeasures/StructureDefinition/cqfm-isTestCase","valueBoolean":true}],"status":"complete","type":"individual","measure":"https://madie.cms.gov/Measure/DischargedonAntithromboticTherapyFHIR","period":{"start":"2025-01-01","end":"2025-12-31"},"group":[{"population":[{"code":{"coding":[{"system":"http://terminology.hl7.org/CodeSystem/measure-population","code":"initial-population","display":"Initial Population"}]},"count":1},{"code":{"coding":[{"system":"http://terminology.hl7.org/CodeSystem/measure-population","code":"denominator","display":"Denominator"}]},"count":1},{"code":{"coding":[{"system":"http://terminology.hl7.org/CodeSystem/measure-population","code":"denominator-exclusion","display":"Denominator Exclusion"}]},"count":0},{"code":{"coding":[{"system":"http://terminology.hl7.org/CodeSystem/measure-population","code":"numerator","display":"Numerator"}]},"count":0},{"code":{"coding":[{"system":"http://terminology.hl7.org/CodeSystem/measure-population","code":"denominator-exception","display":"Denominator Exception"}]},"count":0}]}],"evaluatedResource":[{"reference":"Patient/11f4140c-4345-41f7-a675-eb97730d1b75"},{"reference":"Encounter/98f4d6ba-6e11-4f12-a18c-8437ac252fcb"},{"reference":"MedicationRequest/69c38399-2c2e-4369-80e0-ed2a8bc53c6f"},{"reference":"Condition/bb6028b5-77e0-40e9-9df8-efa782c6a155"},{"reference":"Coverage/a3028ba4-a319-4ca4-9f02-f1acb0fe109c"},{"reference":"Organization/f494324c-16c5-4c6c-be31-893cfa49852d"}]},"request":{"method":"PUT","url":"MeasureReport/9f3e2ae1-9965-4890-8f81-d1a3f2a958b1"}}]}