{"resourceType":"Bundle","id":"tests-0c49cb52-3180-4223-a171-2a51117020a3-bundle","type":"transaction","entry":[{"fullUrl":"https://madie.cms.gov/Patient/0c49cb52-3180-4223-a171-2a51117020a3","resource":{"resourceType":"Patient","id":"0c49cb52-3180-4223-a171-2a51117020a3","meta":{"profile":["http://hl7.org/fhir/us/qicore/StructureDefinition/qicore-patient"]},"text":{"status":"generated","div":"<div xmlns=\"http://www.w3.org/1999/xhtml\"><div class=\"hapiHeaderText\">NonEleInpEncx2 <b>IPPASS </b></div><table class=\"hapiPropertyTable\"><tbody><tr><td>Identifier</td><td>4314501ac9915755d89aa739ef32efe2</td></tr><tr><td>Date of birth</td><td><span>21 August 1994</span></td></tr></tbody></table></div>"},"extension":[{"url":"http://hl7.org/fhir/us/core/StructureDefinition/us-core-race","extension":[{"url":"ombCategory","valueCoding":{"system":"urn:oid:2.16.840.1.113883.6.238","code":"1002-5","display":"American Indian or Alaska Native","userSelected":true}},{"url":"text","valueString":"American Indian or Alaska Native"}]},{"url":"http://hl7.org/fhir/us/core/StructureDefinition/us-core-ethnicity","extension":[{"url":"ombCategory","valueCoding":{"system":"urn:oid:2.16.840.1.113883.6.238","code":"2135-2","display":"Hispanic or Latino","userSelected":true}},{"url":"text","valueString":"Hispanic or Latino"}]}],"identifier":[{"type":{"coding":[{"system":"http://terminology.hl7.org/CodeSystem/v2-0203","code":"MR"}]},"system":"https://bonnie-fhir.healthit.gov/","value":"6129131602c62a011f2e593f"}],"active":true,"name":[{"use":"usual","family":"IPPass","given":["NonEleInpEncx2"]}],"gender":"male","birthDate":"2003-08-21"},"request":{"method":"PUT","url":"Patient/0c49cb52-3180-4223-a171-2a51117020a3"}},{"fullUrl":"https://madie.cms.gov/Encounter/25fa8b76-550f-46eb-9e06-406cd3de65d1","resource":{"resourceType":"Encounter","id":"25fa8b76-550f-46eb-9e06-406cd3de65d1","meta":{"profile":["http://hl7.org/fhir/us/qicore/StructureDefinition/qicore-encounter"]},"status":"finished","class":{"system":"http://terminology.hl7.org/CodeSystem/v3-ActCode","code":"IMP","display":"inpatient encounter","userSelected":true},"type":[{"coding":[{"system":"http://snomed.info/sct","code":"32485007"}]}],"subject":{"reference":"Patient/0c49cb52-3180-4223-a171-2a51117020a3"},"period":{"start":"2025-10-11T09:30:00.000+00:00","end":"2025-10-13T10:30:00.000+00:00"},"length":{"value":2,"unit":"days"},"diagnosis":[{"condition":{"reference":"Condition/e255e153-db22-49b9-9c70-a600716c3e1d"},"use":{"coding":[{"system":"http://terminology.hl7.org/CodeSystem/diagnosis-role","code":"billing","display":"Billing"}]},"rank":1}]},"request":{"method":"PUT","url":"Encounter/25fa8b76-550f-46eb-9e06-406cd3de65d1"}},{"fullUrl":"https://madie.cms.gov/Encounter/b24afa2c-9e12-4e07-91ec-db21dfaa7f3f","resource":{"resourceType":"Encounter","id":"b24afa2c-9e12-4e07-91ec-db21dfaa7f3f","meta":{"profile":["http://hl7.org/fhir/us/qicore/StructureDefinition/qicore-encounter"]},"status":"finished","class":{"system":"http://terminology.hl7.org/CodeSystem/v3-ActCode","code":"IMP","display":"inpatient encounter","userSelected":true},"type":[{"coding":[{"system":"http://snomed.info/sct","code":"32485007"}]}],"subject":{"reference":"Patient/0c49cb52-3180-4223-a171-2a51117020a3"},"period":{"start":"2025-10-10T09:30:00.000+00:00","end":"2025-10-11T10:30:00.000+00:00"},"length":{"value":1,"unit":"day"},"diagnosis":[{"condition":{"reference":"Condition/e5df178c-bb8a-4c55-8c19-fbf1a6d7e56e"},"use":{"coding":[{"system":"http://snomed.info/sct","code":"195155004","display":"Subarachnoid hemorrhage from carotid siphon and bifurcation (disorder)"}]},"rank":2}]},"request":{"method":"PUT","url":"Encounter/b24afa2c-9e12-4e07-91ec-db21dfaa7f3f"}},{"fullUrl":"https://madie.cms.gov/Condition/e255e153-db22-49b9-9c70-a600716c3e1d","resource":{"resourceType":"Condition","id":"e255e153-db22-49b9-9c70-a600716c3e1d","meta":{"profile":["http://hl7.org/fhir/us/qicore/StructureDefinition/qicore-condition"]},"clinicalStatus":{"coding":[{"system":"http://terminology.hl7.org/CodeSystem/condition-clinical","code":"active"}]},"verificationStatus":{"coding":[{"system":"http://terminology.hl7.org/CodeSystem/condition-ver-status","code":"confirmed"}]},"category":[{"coding":[{"system":"http://terminology.hl7.org/CodeSystem/condition-category","code":"encounter-diagnosis","display":"Encounter Diagnosis"}]}],"code":{"coding":[{"system":"http://snomed.info/sct","version":"2020-09","code":"111297002","display":"Nonparalytic stroke (disorder)","userSelected":true}]},"subject":{"reference":"Patient/0c49cb52-3180-4223-a171-2a51117020a3"},"recordedDate":"2025-07-15T08:00:00.000+00:00"},"request":{"method":"PUT","url":"Condition/e255e153-db22-49b9-9c70-a600716c3e1d"}},{"fullUrl":"https://madie.cms.gov/Condition/e5df178c-bb8a-4c55-8c19-fbf1a6d7e56e","resource":{"resourceType":"Condition","id":"e5df178c-bb8a-4c55-8c19-fbf1a6d7e56e","meta":{"profile":["http://hl7.org/fhir/us/qicore/StructureDefinition/qicore-condition"]},"clinicalStatus":{"coding":[{"system":"http://terminology.hl7.org/CodeSystem/condition-clinical","code":"active"}]},"verificationStatus":{"coding":[{"system":"http://terminology.hl7.org/CodeSystem/condition-ver-status","code":"confirmed"}]},"category":[{"coding":[{"system":"http://terminology.hl7.org/CodeSystem/condition-category","code":"encounter-diagnosis","display":"Encounter Diagnosis"}]}],"code":{"coding":[{"system":"http://snomed.info/sct","version":"2020-09","code":"195155004","display":"Subarachnoid hemorrhage from carotid siphon and bifurcation (disorder)","userSelected":true}]},"subject":{"reference":"Patient/0c49cb52-3180-4223-a171-2a51117020a3"},"recordedDate":"2025-07-15T08:00:00.000+00:00"},"request":{"method":"PUT","url":"Condition/e5df178c-bb8a-4c55-8c19-fbf1a6d7e56e"}},{"fullUrl":"https://madie.cms.gov/Coverage/a07685fd-27d2-47fd-9196-476def0a6455","resource":{"resourceType":"Coverage","id":"a07685fd-27d2-47fd-9196-476def0a6455","meta":{"profile":["http://hl7.org/fhir/us/qicore/StructureDefinition/qicore-coverage"]},"status":"active","beneficiary":{"reference":"Patient/0c49cb52-3180-4223-a171-2a51117020a3"},"payor":[{"reference":"Organization/84f00105-1cf4-4705-857f-a69472ad1c30"}]},"request":{"method":"PUT","url":"Coverage/a07685fd-27d2-47fd-9196-476def0a6455"}},{"fullUrl":"https://madie.cms.gov/Organization/84f00105-1cf4-4705-857f-a69472ad1c30","resource":{"resourceType":"Organization","id":"84f00105-1cf4-4705-857f-a69472ad1c30","meta":{"profile":["http://hl7.org/fhir/us/qicore/StructureDefinition/qicore-organization"]},"identifier":[{"use":"temp","system":"urn:oid:2.16.840.1.113883.4.4","value":"21-3259825"}],"active":true,"type":[{"coding":[{"system":"http://terminology.hl7.org/CodeSystem/organization-type","code":"pay","display":"Payer"}]}],"name":"Blue Cross Blue Shield of Texas","telecom":[{"system":"phone","value":"(+1) 972-766-6900"}],"address":[{"use":"billing","type":"postal","line":["P.O. Box 660044"],"city":"Dallas","state":"TX","postalCode":"75266-0044","country":"USA"}]},"request":{"method":"PUT","url":"Organization/84f00105-1cf4-4705-857f-a69472ad1c30"}},{"fullUrl":"https://madie.cms.gov/MeasureReport/85d6b725-baff-49f6-8645-3114f115dcff","resource":{"resourceType":"MeasureReport","id":"85d6b725-baff-49f6-8645-3114f115dcff","meta":{"profile":["http://hl7.org/fhir/us/cqfmeasures/StructureDefinition/test-case-cqfm"]},"contained":[{"resourceType":"Parameters","id":"cb86f9f1-1c38-4c69-8493-80011833b085-parameters","parameter":[{"name":"subject","valueString":"0c49cb52-3180-4223-a171-2a51117020a3"}]}],"extension":[{"url":"http://hl7.org/fhir/us/cqfmeasures/StructureDefinition/cqfm-inputParameters","valueReference":{"reference":"#cb86f9f1-1c38-4c69-8493-80011833b085-parameters"}},{"url":"http://hl7.org/fhir/us/cqfmeasures/StructureDefinition/cqfm-testCaseDescription","valueMarkdown":"Patient is 18 with Non-Elective Inpatient Encounter with principal diagnosis of ischemic stroke ends during MP contains overlapping inpatient encounters. \n"}],"modifierExtension":[{"url":"http://hl7.org/fhir/us/cqfmeasures/StructureDefinition/cqfm-isTestCase","valueBoolean":true}],"status":"complete","type":"individual","measure":"https://madie.cms.gov/Measure/DischargedonAntithromboticTherapyFHIR","period":{"start":"2025-01-01","end":"2025-12-31"},"group":[{"population":[{"code":{"coding":[{"system":"http://terminology.hl7.org/CodeSystem/measure-population","code":"initial-population","display":"Initial Population"}]},"count":1},{"code":{"coding":[{"system":"http://terminology.hl7.org/CodeSystem/measure-population","code":"denominator","display":"Denominator"}]},"count":1},{"code":{"coding":[{"system":"http://terminology.hl7.org/CodeSystem/measure-population","code":"denominator-exclusion","display":"Denominator Exclusion"}]},"count":0},{"code":{"coding":[{"system":"http://terminology.hl7.org/CodeSystem/measure-population","code":"numerator","display":"Numerator"}]},"count":0},{"code":{"coding":[{"system":"http://terminology.hl7.org/CodeSystem/measure-population","code":"denominator-exception","display":"Denominator Exception"}]},"count":0}]}],"evaluatedResource":[{"reference":"Patient/0c49cb52-3180-4223-a171-2a51117020a3"},{"reference":"Encounter/25fa8b76-550f-46eb-9e06-406cd3de65d1"},{"reference":"Encounter/b24afa2c-9e12-4e07-91ec-db21dfaa7f3f"},{"reference":"Condition/e255e153-db22-49b9-9c70-a600716c3e1d"},{"reference":"Condition/e5df178c-bb8a-4c55-8c19-fbf1a6d7e56e"},{"reference":"Coverage/a07685fd-27d2-47fd-9196-476def0a6455"},{"reference":"Organization/84f00105-1cf4-4705-857f-a69472ad1c30"}]},"request":{"method":"PUT","url":"MeasureReport/85d6b725-baff-49f6-8645-3114f115dcff"}}]}