{"resourceType":"Bundle","id":"tests-4d54cb50-ec59-42b1-a36a-9da16b998c19-bundle","type":"transaction","entry":[{"fullUrl":"https://madie.cms.gov/Patient/4d54cb50-ec59-42b1-a36a-9da16b998c19","resource":{"resourceType":"Patient","id":"4d54cb50-ec59-42b1-a36a-9da16b998c19","meta":{"profile":["http://hl7.org/fhir/us/qicore/StructureDefinition/qicore-patient"]},"text":{"status":"generated","div":"<div xmlns=\"http://www.w3.org/1999/xhtml\"><div class=\"hapiHeaderText\">CMOdurObs_NoEDObs&lt;1hrBFEnc <b>DENEXPASS </b></div><table class=\"hapiPropertyTable\"><tbody><tr><td>Identifier</td><td>5a7e040e256dded60537a54bf9421da8</td></tr><tr><td>Date of birth</td><td><span>21 August 1994</span></td></tr></tbody></table></div>"},"extension":[{"url":"http://hl7.org/fhir/us/core/StructureDefinition/us-core-race","extension":[{"url":"ombCategory","valueCoding":{"system":"urn:oid:2.16.840.1.113883.6.238","code":"1002-5","display":"American Indian or Alaska Native","userSelected":true}},{"url":"text","valueString":"American Indian or Alaska Native"}]},{"url":"http://hl7.org/fhir/us/core/StructureDefinition/us-core-ethnicity","extension":[{"url":"ombCategory","valueCoding":{"system":"urn:oid:2.16.840.1.113883.6.238","code":"2135-2","display":"Hispanic or Latino","userSelected":true}},{"url":"text","valueString":"Hispanic or Latino"}]}],"identifier":[{"type":{"coding":[{"system":"http://terminology.hl7.org/CodeSystem/v2-0203","code":"MR"}]},"system":"https://bonnie-fhir.healthit.gov/","value":"6129133a02c62a011f2e6844"}],"active":true,"name":[{"use":"usual","family":"DENEXPass","given":["CMOdurObs_NoEDObs<1hrBFEnc"]}],"gender":"male","birthDate":"1994-08-21"},"request":{"method":"PUT","url":"Patient/4d54cb50-ec59-42b1-a36a-9da16b998c19"}},{"fullUrl":"https://madie.cms.gov/Encounter/9201fe62-f592-447d-bac1-9a63b5d9e9b2","resource":{"resourceType":"Encounter","id":"9201fe62-f592-447d-bac1-9a63b5d9e9b2","meta":{"profile":["http://hl7.org/fhir/us/qicore/StructureDefinition/qicore-encounter"]},"status":"finished","class":{"system":"http://terminology.hl7.org/CodeSystem/v3-ActCode","code":"OBSENC","display":"observation encounter","userSelected":true},"type":[{"coding":[{"system":"http://snomed.info/sct","code":"448951000124107"}]}],"subject":{"reference":"Patient/4d54cb50-ec59-42b1-a36a-9da16b998c19"},"period":{"start":"2025-10-10T07:30:00.000+00:00","end":"2025-10-10T08:00:00.000+00:00"},"length":{"value":0,"unit":"days"}},"request":{"method":"PUT","url":"Encounter/9201fe62-f592-447d-bac1-9a63b5d9e9b2"}},{"fullUrl":"https://madie.cms.gov/Encounter/5c3da054-815e-4a72-8767-690b6be89dd4","resource":{"resourceType":"Encounter","id":"5c3da054-815e-4a72-8767-690b6be89dd4","meta":{"profile":["http://hl7.org/fhir/us/qicore/StructureDefinition/qicore-encounter"]},"status":"finished","class":{"system":"http://terminology.hl7.org/CodeSystem/v3-ActCode","code":"IMP","display":"inpatient encounter","userSelected":true},"type":[{"coding":[{"system":"http://snomed.info/sct","code":"32485007"}]}],"subject":{"reference":"Patient/4d54cb50-ec59-42b1-a36a-9da16b998c19"},"period":{"start":"2025-10-10T08:01:00.000+00:00","end":"2025-10-12T10:30:00.000+00:00"},"length":{"value":2,"unit":"days"},"diagnosis":[{"condition":{"reference":"Condition/fe525f74-26b5-4440-b2fa-47178ec5e0c5"},"use":{"coding":[{"system":"http://terminology.hl7.org/CodeSystem/diagnosis-role","code":"billing","display":"Billing"}]},"rank":1}]},"request":{"method":"PUT","url":"Encounter/5c3da054-815e-4a72-8767-690b6be89dd4"}},{"fullUrl":"https://madie.cms.gov/ServiceRequest/d3935ea1-86da-416b-844f-6a0473ac1656","resource":{"resourceType":"ServiceRequest","id":"d3935ea1-86da-416b-844f-6a0473ac1656","meta":{"profile":["http://hl7.org/fhir/us/qicore/StructureDefinition/qicore-servicerequest"]},"status":"active","intent":"order","code":{"coding":[{"system":"http://snomed.info/sct","code":"133918004"}]},"subject":{"reference":"Patient/4d54cb50-ec59-42b1-a36a-9da16b998c19"},"authoredOn":"2025-10-10T07:30:00.000+00:00"},"request":{"method":"PUT","url":"ServiceRequest/d3935ea1-86da-416b-844f-6a0473ac1656"}},{"fullUrl":"https://madie.cms.gov/Condition/fe525f74-26b5-4440-b2fa-47178ec5e0c5","resource":{"resourceType":"Condition","id":"fe525f74-26b5-4440-b2fa-47178ec5e0c5","meta":{"profile":["http://hl7.org/fhir/us/qicore/StructureDefinition/qicore-condition"]},"clinicalStatus":{"coding":[{"system":"http://terminology.hl7.org/CodeSystem/condition-clinical","code":"active"}]},"verificationStatus":{"coding":[{"system":"http://terminology.hl7.org/CodeSystem/condition-ver-status","code":"confirmed"}]},"category":[{"coding":[{"system":"http://terminology.hl7.org/CodeSystem/condition-category","code":"encounter-diagnosis","display":"Encounter Diagnosis"}]}],"code":{"coding":[{"system":"http://snomed.info/sct","version":"2020-09","code":"111297002","display":"Nonparalytic stroke (disorder)","userSelected":true}]},"subject":{"reference":"Patient/4d54cb50-ec59-42b1-a36a-9da16b998c19"},"recordedDate":"2025-07-15T08:00:00.000+00:00"},"request":{"method":"PUT","url":"Condition/fe525f74-26b5-4440-b2fa-47178ec5e0c5"}},{"fullUrl":"https://madie.cms.gov/Coverage/1fad231c-647f-488d-bb36-07c95e33aa72","resource":{"resourceType":"Coverage","id":"1fad231c-647f-488d-bb36-07c95e33aa72","meta":{"profile":["http://hl7.org/fhir/us/qicore/StructureDefinition/qicore-coverage"]},"status":"active","beneficiary":{"reference":"Patient/4d54cb50-ec59-42b1-a36a-9da16b998c19"},"payor":[{"reference":"Organization/a0e7b9df-eec6-4f96-b7fa-c8dccc4876a8"}]},"request":{"method":"PUT","url":"Coverage/1fad231c-647f-488d-bb36-07c95e33aa72"}},{"fullUrl":"https://madie.cms.gov/Organization/a0e7b9df-eec6-4f96-b7fa-c8dccc4876a8","resource":{"resourceType":"Organization","id":"a0e7b9df-eec6-4f96-b7fa-c8dccc4876a8","meta":{"profile":["http://hl7.org/fhir/us/qicore/StructureDefinition/qicore-organization"]},"identifier":[{"use":"temp","system":"urn:oid:2.16.840.1.113883.4.4","value":"21-3259825"}],"active":true,"type":[{"coding":[{"system":"http://terminology.hl7.org/CodeSystem/organization-type","code":"pay","display":"Payer"}]}],"name":"Blue Cross Blue Shield of Texas","telecom":[{"system":"phone","value":"(+1) 972-766-6900"}],"address":[{"use":"billing","type":"postal","line":["P.O. Box 660044"],"city":"Dallas","state":"TX","postalCode":"75266-0044","country":"USA"}]},"request":{"method":"PUT","url":"Organization/a0e7b9df-eec6-4f96-b7fa-c8dccc4876a8"}},{"fullUrl":"https://madie.cms.gov/MeasureReport/5b8796f1-dfe4-4116-8d25-8ba251781405","resource":{"resourceType":"MeasureReport","id":"5b8796f1-dfe4-4116-8d25-8ba251781405","meta":{"profile":["http://hl7.org/fhir/us/cqfmeasures/StructureDefinition/test-case-cqfm"]},"contained":[{"resourceType":"Parameters","id":"8871e6a0-4cbc-424f-b291-cbaddc378e8b-parameters","parameter":[{"name":"subject","valueString":"4d54cb50-ec59-42b1-a36a-9da16b998c19"}]}],"extension":[{"url":"http://hl7.org/fhir/us/cqfmeasures/StructureDefinition/cqfm-inputParameters","valueReference":{"reference":"#8871e6a0-4cbc-424f-b291-cbaddc378e8b-parameters"}},{"url":"http://hl7.org/fhir/us/cqfmeasures/StructureDefinition/cqfm-testCaseDescription","valueMarkdown":"Patient receives CMP during inpatient encounter. No ED. No Observation. Testing day of operator with HospitalizationWithObservation function.\n"}],"modifierExtension":[{"url":"http://hl7.org/fhir/us/cqfmeasures/StructureDefinition/cqfm-isTestCase","valueBoolean":true}],"status":"complete","type":"individual","measure":"https://madie.cms.gov/Measure/DischargedonAntithromboticTherapyFHIR","period":{"start":"2025-01-01","end":"2025-12-31"},"group":[{"population":[{"code":{"coding":[{"system":"http://terminology.hl7.org/CodeSystem/measure-population","code":"initial-population","display":"Initial Population"}]},"count":1},{"code":{"coding":[{"system":"http://terminology.hl7.org/CodeSystem/measure-population","code":"denominator","display":"Denominator"}]},"count":1},{"code":{"coding":[{"system":"http://terminology.hl7.org/CodeSystem/measure-population","code":"denominator-exclusion","display":"Denominator Exclusion"}]},"count":1},{"code":{"coding":[{"system":"http://terminology.hl7.org/CodeSystem/measure-population","code":"numerator","display":"Numerator"}]},"count":0},{"code":{"coding":[{"system":"http://terminology.hl7.org/CodeSystem/measure-population","code":"denominator-exception","display":"Denominator Exception"}]},"count":0}]}],"evaluatedResource":[{"reference":"Patient/4d54cb50-ec59-42b1-a36a-9da16b998c19"},{"reference":"Encounter/9201fe62-f592-447d-bac1-9a63b5d9e9b2"},{"reference":"Encounter/5c3da054-815e-4a72-8767-690b6be89dd4"},{"reference":"ServiceRequest/d3935ea1-86da-416b-844f-6a0473ac1656"},{"reference":"Condition/fe525f74-26b5-4440-b2fa-47178ec5e0c5"},{"reference":"Coverage/1fad231c-647f-488d-bb36-07c95e33aa72"},{"reference":"Organization/a0e7b9df-eec6-4f96-b7fa-c8dccc4876a8"}]},"request":{"method":"PUT","url":"MeasureReport/5b8796f1-dfe4-4116-8d25-8ba251781405"}}]}