{"resourceType":"Bundle","id":"tests-8cede968-425b-4f31-8dc6-51900997d179-bundle","type":"transaction","entry":[{"fullUrl":"https://madie.cms.gov/Patient/8cede968-425b-4f31-8dc6-51900997d179","resource":{"resourceType":"Patient","id":"8cede968-425b-4f31-8dc6-51900997d179","meta":{"profile":["http://hl7.org/fhir/us/qicore/StructureDefinition/qicore-patient"]},"text":{"status":"generated","div":"<div xmlns=\"http://www.w3.org/1999/xhtml\"><div class=\"hapiHeaderText\">AntithromboticStartBeforeIPEnc <b>NUMERFAIL </b></div><table class=\"hapiPropertyTable\"><tbody><tr><td>Identifier</td><td>a70c66a1810e267b2b55f323c077c4e1</td></tr><tr><td>Date of birth</td><td><span>26 August 1990</span></td></tr></tbody></table></div>"},"extension":[{"url":"http://hl7.org/fhir/us/core/StructureDefinition/us-core-race","extension":[{"url":"ombCategory","valueCoding":{"system":"urn:oid:2.16.840.1.113883.6.238","code":"1002-5","display":"American Indian or Alaska Native","userSelected":true}},{"url":"text","valueString":"American Indian or Alaska Native"}]},{"url":"http://hl7.org/fhir/us/core/StructureDefinition/us-core-ethnicity","extension":[{"url":"ombCategory","valueCoding":{"system":"urn:oid:2.16.840.1.113883.6.238","code":"2135-2","display":"Hispanic or Latino","userSelected":true}},{"url":"text","valueString":"Hispanic or Latino"}]}],"identifier":[{"type":{"coding":[{"system":"http://terminology.hl7.org/CodeSystem/v2-0203","code":"MR"}]},"system":"https://bonnie-fhir.healthit.gov/","value":"6129132602c62a011f2e5ffc"}],"active":true,"name":[{"use":"usual","family":"NUMERFail","given":["AntithromboticStartBeforeIPEnc"]}],"gender":"male","birthDate":"1999-08-26"},"request":{"method":"PUT","url":"Patient/8cede968-425b-4f31-8dc6-51900997d179"}},{"fullUrl":"https://madie.cms.gov/Encounter/824e54cd-d902-41b9-86fa-f0c04e88fdd5","resource":{"resourceType":"Encounter","id":"824e54cd-d902-41b9-86fa-f0c04e88fdd5","meta":{"profile":["http://hl7.org/fhir/us/qicore/StructureDefinition/qicore-encounter"]},"status":"finished","class":{"system":"http://terminology.hl7.org/CodeSystem/v3-ActCode","code":"IMP","display":"inpatient encounter","userSelected":true},"type":[{"coding":[{"system":"http://snomed.info/sct","code":"32485007"}]}],"subject":{"reference":"Patient/8cede968-425b-4f31-8dc6-51900997d179"},"period":{"start":"2025-10-10T09:30:00.000+00:00","end":"2025-10-12T10:30:00.000+00:00"},"length":{"value":2,"unit":"days"},"diagnosis":[{"condition":{"reference":"Condition/255da84c-4ff6-4a21-9d61-7be73b30b3e7"},"use":{"coding":[{"system":"http://terminology.hl7.org/CodeSystem/diagnosis-role","code":"billing","display":"Billing"}]},"rank":1}]},"request":{"method":"PUT","url":"Encounter/824e54cd-d902-41b9-86fa-f0c04e88fdd5"}},{"fullUrl":"https://madie.cms.gov/MedicationRequest/170e03f4-7c92-4358-a181-b67630402bd7","resource":{"resourceType":"MedicationRequest","id":"170e03f4-7c92-4358-a181-b67630402bd7","meta":{"profile":["http://hl7.org/fhir/us/qicore/StructureDefinition/qicore-medicationrequest"]},"status":"active","intent":"order","category":[{"coding":[{"system":"http://terminology.hl7.org/CodeSystem/medicationrequest-category","code":"discharge","display":"Discharge","userSelected":true}]}],"medicationCodeableConcept":{"coding":[{"system":"http://www.nlm.nih.gov/research/umls/rxnorm","code":"198466"}]},"subject":{"reference":"Patient/8cede968-425b-4f31-8dc6-51900997d179"},"authoredOn":"2012-10-09T10:00:00+00:00","requester":{"reference":"Practitioner/example"}},"request":{"method":"PUT","url":"MedicationRequest/170e03f4-7c92-4358-a181-b67630402bd7"}},{"fullUrl":"https://madie.cms.gov/Condition/255da84c-4ff6-4a21-9d61-7be73b30b3e7","resource":{"resourceType":"Condition","id":"255da84c-4ff6-4a21-9d61-7be73b30b3e7","meta":{"profile":["http://hl7.org/fhir/us/qicore/StructureDefinition/qicore-condition"]},"clinicalStatus":{"coding":[{"system":"http://terminology.hl7.org/CodeSystem/condition-clinical","code":"active"}]},"verificationStatus":{"coding":[{"system":"http://terminology.hl7.org/CodeSystem/condition-ver-status","code":"confirmed"}]},"category":[{"coding":[{"system":"http://terminology.hl7.org/CodeSystem/condition-category","code":"encounter-diagnosis","display":"Encounter Diagnosis"}]}],"code":{"coding":[{"system":"http://snomed.info/sct","version":"2020-09","code":"111297002","display":"Nonparalytic stroke (disorder)","userSelected":true}]},"subject":{"reference":"Patient/8cede968-425b-4f31-8dc6-51900997d179"},"recordedDate":"2025-07-15T08:00:00.000+00:00"},"request":{"method":"PUT","url":"Condition/255da84c-4ff6-4a21-9d61-7be73b30b3e7"}},{"fullUrl":"https://madie.cms.gov/Coverage/2bc9476e-4e0f-493c-8cd6-e0cc3c92aa88","resource":{"resourceType":"Coverage","id":"2bc9476e-4e0f-493c-8cd6-e0cc3c92aa88","meta":{"profile":["http://hl7.org/fhir/us/qicore/StructureDefinition/qicore-coverage"]},"status":"active","beneficiary":{"reference":"Patient/8cede968-425b-4f31-8dc6-51900997d179"},"payor":[{"reference":"Organization/06e11b91-5589-4421-9e6f-02649590aead"}]},"request":{"method":"PUT","url":"Coverage/2bc9476e-4e0f-493c-8cd6-e0cc3c92aa88"}},{"fullUrl":"https://madie.cms.gov/Organization/06e11b91-5589-4421-9e6f-02649590aead","resource":{"resourceType":"Organization","id":"06e11b91-5589-4421-9e6f-02649590aead","meta":{"profile":["http://hl7.org/fhir/us/qicore/StructureDefinition/qicore-organization"]},"identifier":[{"use":"temp","system":"urn:oid:2.16.840.1.113883.4.4","value":"21-3259825"}],"active":true,"type":[{"coding":[{"system":"http://terminology.hl7.org/CodeSystem/organization-type","code":"pay","display":"Payer"}]}],"name":"Blue Cross Blue Shield of Texas","telecom":[{"system":"phone","value":"(+1) 972-766-6900"}],"address":[{"use":"billing","type":"postal","line":["P.O. Box 660044"],"city":"Dallas","state":"TX","postalCode":"75266-0044","country":"USA"}]},"request":{"method":"PUT","url":"Organization/06e11b91-5589-4421-9e6f-02649590aead"}},{"fullUrl":"https://madie.cms.gov/MeasureReport/c3d2e126-a720-4e73-92bb-dad6bf86c6a6","resource":{"resourceType":"MeasureReport","id":"c3d2e126-a720-4e73-92bb-dad6bf86c6a6","meta":{"profile":["http://hl7.org/fhir/us/cqfmeasures/StructureDefinition/test-case-cqfm"]},"contained":[{"resourceType":"Parameters","id":"d1656d67-7d59-48ee-9972-f9d27b337725-parameters","parameter":[{"name":"subject","valueString":"8cede968-425b-4f31-8dc6-51900997d179"}]}],"extension":[{"url":"http://hl7.org/fhir/us/cqfmeasures/StructureDefinition/cqfm-inputParameters","valueReference":{"reference":"#d1656d67-7d59-48ee-9972-f9d27b337725-parameters"}},{"url":"http://hl7.org/fhir/us/cqfmeasures/StructureDefinition/cqfm-testCaseDescription","valueMarkdown":"Patient received anti thrombotic before and during encounter\n"}],"modifierExtension":[{"url":"http://hl7.org/fhir/us/cqfmeasures/StructureDefinition/cqfm-isTestCase","valueBoolean":true}],"status":"complete","type":"individual","measure":"https://madie.cms.gov/Measure/DischargedonAntithromboticTherapyFHIR","period":{"start":"2025-01-01","end":"2025-12-31"},"group":[{"population":[{"code":{"coding":[{"system":"http://terminology.hl7.org/CodeSystem/measure-population","code":"initial-population","display":"Initial Population"}]},"count":1},{"code":{"coding":[{"system":"http://terminology.hl7.org/CodeSystem/measure-population","code":"denominator","display":"Denominator"}]},"count":1},{"code":{"coding":[{"system":"http://terminology.hl7.org/CodeSystem/measure-population","code":"denominator-exclusion","display":"Denominator Exclusion"}]},"count":0},{"code":{"coding":[{"system":"http://terminology.hl7.org/CodeSystem/measure-population","code":"numerator","display":"Numerator"}]},"count":0},{"code":{"coding":[{"system":"http://terminology.hl7.org/CodeSystem/measure-population","code":"denominator-exception","display":"Denominator Exception"}]},"count":0}]}],"evaluatedResource":[{"reference":"Patient/8cede968-425b-4f31-8dc6-51900997d179"},{"reference":"Encounter/824e54cd-d902-41b9-86fa-f0c04e88fdd5"},{"reference":"MedicationRequest/170e03f4-7c92-4358-a181-b67630402bd7"},{"reference":"Condition/255da84c-4ff6-4a21-9d61-7be73b30b3e7"},{"reference":"Coverage/2bc9476e-4e0f-493c-8cd6-e0cc3c92aa88"},{"reference":"Organization/06e11b91-5589-4421-9e6f-02649590aead"}]},"request":{"method":"PUT","url":"MeasureReport/c3d2e126-a720-4e73-92bb-dad6bf86c6a6"}}]}