{"resourceType":"Bundle","id":"tests-a0d5c7b6-68f5-4818-a373-60398e408cab-bundle","type":"transaction","entry":[{"fullUrl":"https://madie.cms.gov/Patient/a0d5c7b6-68f5-4818-a373-60398e408cab","resource":{"resourceType":"Patient","id":"a0d5c7b6-68f5-4818-a373-60398e408cab","meta":{"profile":["http://hl7.org/fhir/us/qicore/StructureDefinition/qicore-patient"]},"text":{"status":"generated","div":"<div xmlns=\"http://www.w3.org/1999/xhtml\"><div class=\"hapiHeaderText\">MedRsnDuringEncIp <b>DENEXCEPPASS </b></div><table class=\"hapiPropertyTable\"><tbody><tr><td>Identifier</td><td>3039af68ea0bbae6f907404de07760b3</td></tr><tr><td>Date of birth</td><td><span>21 August 1994</span></td></tr></tbody></table></div>"},"extension":[{"url":"http://hl7.org/fhir/us/core/StructureDefinition/us-core-race","extension":[{"url":"ombCategory","valueCoding":{"system":"urn:oid:2.16.840.1.113883.6.238","code":"1002-5","display":"American Indian or Alaska Native","userSelected":true}},{"url":"text","valueString":"American Indian or Alaska Native"}]},{"url":"http://hl7.org/fhir/us/core/StructureDefinition/us-core-ethnicity","extension":[{"url":"ombCategory","valueCoding":{"system":"urn:oid:2.16.840.1.113883.6.238","code":"2135-2","display":"Hispanic or Latino","userSelected":true}},{"url":"text","valueString":"Hispanic or Latino"}]}],"identifier":[{"type":{"coding":[{"system":"http://terminology.hl7.org/CodeSystem/v2-0203","code":"MR"}]},"system":"https://bonnie-fhir.healthit.gov/","value":"6129134502c62a011f2e6d07"}],"active":true,"name":[{"use":"usual","family":"DENEXCEPPass","given":["MedRsnDuringEncIp"]}],"gender":"male","birthDate":"1994-08-21"},"request":{"method":"PUT","url":"Patient/a0d5c7b6-68f5-4818-a373-60398e408cab"}},{"fullUrl":"https://madie.cms.gov/Encounter/0532563a-f11e-47d8-87a1-4b701b5d8cf7","resource":{"resourceType":"Encounter","id":"0532563a-f11e-47d8-87a1-4b701b5d8cf7","meta":{"profile":["http://hl7.org/fhir/us/qicore/StructureDefinition/qicore-encounter"]},"status":"finished","class":{"system":"http://terminology.hl7.org/CodeSystem/v3-ActCode","code":"IMP","display":"inpatient encounter","userSelected":true},"type":[{"coding":[{"system":"http://snomed.info/sct","code":"32485007"}]}],"subject":{"reference":"Patient/a0d5c7b6-68f5-4818-a373-60398e408cab"},"period":{"start":"2025-10-10T09:30:00.000+00:00","end":"2025-10-12T10:30:00.000+00:00"},"length":{"value":2,"unit":"days"},"diagnosis":[{"condition":{"reference":"Condition/ff91104d-c1b6-482e-a0e3-0297d8b61b9c"},"use":{"coding":[{"system":"http://terminology.hl7.org/CodeSystem/diagnosis-role","code":"billing","display":"Billing"}]},"rank":1}]},"request":{"method":"PUT","url":"Encounter/0532563a-f11e-47d8-87a1-4b701b5d8cf7"}},{"fullUrl":"https://madie.cms.gov/MedicationRequest/86d4a867-ed4f-42ce-bdf6-9682c09587be","resource":{"resourceType":"MedicationRequest","id":"86d4a867-ed4f-42ce-bdf6-9682c09587be","meta":{"profile":["http://hl7.org/fhir/us/qicore/StructureDefinition/qicore-mednotrequested"]},"status":"completed","intent":"order","category":[{"coding":[{"system":"http://terminology.hl7.org/CodeSystem/medicationrequest-category","code":"community"}]}],"doNotPerform":true,"medicationCodeableConcept":{"coding":[{"system":"http://www.nlm.nih.gov/research/umls/rxnorm","code":"1037045"}]},"subject":{"reference":"Patient/a0d5c7b6-68f5-4818-a373-60398e408cab"},"authoredOn":"2025-10-12T09:30:00.000+00:00","requester":{"reference":"Practitioner/example"},"reasonCode":[{"coding":[{"system":"http://snomed.info/sct","code":"183932001","display":"Procedure contraindicated (situation)","userSelected":true}]}]},"request":{"method":"PUT","url":"MedicationRequest/86d4a867-ed4f-42ce-bdf6-9682c09587be"}},{"fullUrl":"https://madie.cms.gov/Condition/ff91104d-c1b6-482e-a0e3-0297d8b61b9c","resource":{"resourceType":"Condition","id":"ff91104d-c1b6-482e-a0e3-0297d8b61b9c","meta":{"profile":["http://hl7.org/fhir/us/qicore/StructureDefinition/qicore-condition"]},"clinicalStatus":{"coding":[{"system":"http://terminology.hl7.org/CodeSystem/condition-clinical","code":"active"}]},"verificationStatus":{"coding":[{"system":"http://terminology.hl7.org/CodeSystem/condition-ver-status","code":"confirmed"}]},"category":[{"coding":[{"system":"http://terminology.hl7.org/CodeSystem/condition-category","code":"encounter-diagnosis","display":"Encounter Diagnosis"}]}],"code":{"coding":[{"system":"http://snomed.info/sct","version":"2020-09","code":"111297002","display":"Nonparalytic stroke (disorder)","userSelected":true}]},"subject":{"reference":"Patient/a0d5c7b6-68f5-4818-a373-60398e408cab"},"recordedDate":"2025-07-14T08:00:00.000+00:00"},"request":{"method":"PUT","url":"Condition/ff91104d-c1b6-482e-a0e3-0297d8b61b9c"}},{"fullUrl":"https://madie.cms.gov/Coverage/67c92941-e9d0-4f4c-8afb-355457642e4c","resource":{"resourceType":"Coverage","id":"67c92941-e9d0-4f4c-8afb-355457642e4c","meta":{"profile":["http://hl7.org/fhir/us/qicore/StructureDefinition/qicore-coverage"]},"status":"active","beneficiary":{"reference":"Patient/a0d5c7b6-68f5-4818-a373-60398e408cab"},"payor":[{"reference":"Organization/b5e3327c-41c5-4723-b0b0-d684656cb135"}]},"request":{"method":"PUT","url":"Coverage/67c92941-e9d0-4f4c-8afb-355457642e4c"}},{"fullUrl":"https://madie.cms.gov/Organization/b5e3327c-41c5-4723-b0b0-d684656cb135","resource":{"resourceType":"Organization","id":"b5e3327c-41c5-4723-b0b0-d684656cb135","meta":{"profile":["http://hl7.org/fhir/us/qicore/StructureDefinition/qicore-organization"]},"identifier":[{"use":"temp","system":"urn:oid:2.16.840.1.113883.4.4","value":"21-3259825"}],"active":true,"type":[{"coding":[{"system":"http://terminology.hl7.org/CodeSystem/organization-type","code":"pay","display":"Payer"}]}],"name":"Blue Cross Blue Shield of Texas","telecom":[{"system":"phone","value":"(+1) 972-766-6900"}],"address":[{"use":"billing","type":"postal","line":["P.O. Box 660044"],"city":"Dallas","state":"TX","postalCode":"75266-0044","country":"USA"}]},"request":{"method":"PUT","url":"Organization/b5e3327c-41c5-4723-b0b0-d684656cb135"}},{"fullUrl":"https://madie.cms.gov/MeasureReport/c9bfc537-9ba7-4327-991f-b4b1cee5ff8a","resource":{"resourceType":"MeasureReport","id":"c9bfc537-9ba7-4327-991f-b4b1cee5ff8a","meta":{"profile":["http://hl7.org/fhir/us/cqfmeasures/StructureDefinition/test-case-cqfm"]},"contained":[{"resourceType":"Parameters","id":"6ad645c2-da07-46ff-9630-6ab13896a66d-parameters","parameter":[{"name":"subject","valueString":"a0d5c7b6-68f5-4818-a373-60398e408cab"}]}],"extension":[{"url":"http://hl7.org/fhir/us/cqfmeasures/StructureDefinition/cqfm-inputParameters","valueReference":{"reference":"#6ad645c2-da07-46ff-9630-6ab13896a66d-parameters"}},{"url":"http://hl7.org/fhir/us/cqfmeasures/StructureDefinition/cqfm-testCaseDescription","valueMarkdown":"Patient does not get antithrombotic medication due to medical reasons after IP encounter. This case tests the timing boundary for den exception criteria."}],"modifierExtension":[{"url":"http://hl7.org/fhir/us/cqfmeasures/StructureDefinition/cqfm-isTestCase","valueBoolean":true}],"status":"complete","type":"individual","measure":"https://madie.cms.gov/Measure/DischargedonAntithromboticTherapyFHIR","period":{"start":"2025-01-01","end":"2025-12-31"},"group":[{"population":[{"code":{"coding":[{"system":"http://terminology.hl7.org/CodeSystem/measure-population","code":"initial-population","display":"Initial Population"}]},"count":1},{"code":{"coding":[{"system":"http://terminology.hl7.org/CodeSystem/measure-population","code":"denominator","display":"Denominator"}]},"count":1},{"code":{"coding":[{"system":"http://terminology.hl7.org/CodeSystem/measure-population","code":"denominator-exclusion","display":"Denominator Exclusion"}]},"count":0},{"code":{"coding":[{"system":"http://terminology.hl7.org/CodeSystem/measure-population","code":"numerator","display":"Numerator"}]},"count":0},{"code":{"coding":[{"system":"http://terminology.hl7.org/CodeSystem/measure-population","code":"denominator-exception","display":"Denominator Exception"}]},"count":1}]}],"evaluatedResource":[{"reference":"Patient/a0d5c7b6-68f5-4818-a373-60398e408cab"},{"reference":"Encounter/0532563a-f11e-47d8-87a1-4b701b5d8cf7"},{"reference":"MedicationRequest/86d4a867-ed4f-42ce-bdf6-9682c09587be"},{"reference":"Condition/ff91104d-c1b6-482e-a0e3-0297d8b61b9c"},{"reference":"Coverage/67c92941-e9d0-4f4c-8afb-355457642e4c"},{"reference":"Organization/b5e3327c-41c5-4723-b0b0-d684656cb135"}]},"request":{"method":"PUT","url":"MeasureReport/c9bfc537-9ba7-4327-991f-b4b1cee5ff8a"}}]}