{"resourceType":"Bundle","id":"tests-111e5d36-6549-41fc-ba71-f674e06f87e0-bundle","type":"transaction","entry":[{"fullUrl":"https://madie.cms.gov/Patient/111e5d36-6549-41fc-ba71-f674e06f87e0","resource":{"resourceType":"Patient","id":"111e5d36-6549-41fc-ba71-f674e06f87e0","meta":{"profile":["http://hl7.org/fhir/us/qicore/StructureDefinition/qicore-patient"]},"text":{"status":"generated","div":"<div xmlns=\"http://www.w3.org/1999/xhtml\"><div class=\"hapiHeaderText\">MedRsnStartTmEQEncInpDischTm <b>DENEXCEPPASS </b></div><table class=\"hapiPropertyTable\"><tbody><tr><td>Identifier</td><td>fda7b050e12de0ed52eb115cb824c808</td></tr><tr><td>Date of birth</td><td><span>21 August 1994</span></td></tr></tbody></table></div>"},"extension":[{"url":"http://hl7.org/fhir/us/core/StructureDefinition/us-core-race","extension":[{"url":"ombCategory","valueCoding":{"system":"urn:oid:2.16.840.1.113883.6.238","code":"1002-5","display":"American Indian or Alaska Native","userSelected":true}},{"url":"text","valueString":"American Indian or Alaska Native"}]},{"url":"http://hl7.org/fhir/us/core/StructureDefinition/us-core-ethnicity","extension":[{"url":"ombCategory","valueCoding":{"system":"urn:oid:2.16.840.1.113883.6.238","code":"2135-2","display":"Hispanic or Latino","userSelected":true}},{"url":"text","valueString":"Hispanic or Latino"}]}],"identifier":[{"type":{"coding":[{"system":"http://terminology.hl7.org/CodeSystem/v2-0203","code":"MR"}]},"system":"https://bonnie-fhir.healthit.gov/","value":"6129134302c62a011f2e6c35"}],"active":true,"name":[{"use":"usual","family":"DENEXCEPPass","given":["MedRsnStartTmEQEncInpDischTm"]}],"gender":"male","birthDate":"1994-08-21"},"request":{"method":"PUT","url":"Patient/111e5d36-6549-41fc-ba71-f674e06f87e0"}},{"fullUrl":"https://madie.cms.gov/Encounter/683cdefb-e0df-41c6-9ff6-5e1fe923b6b5","resource":{"resourceType":"Encounter","id":"683cdefb-e0df-41c6-9ff6-5e1fe923b6b5","meta":{"profile":["http://hl7.org/fhir/us/qicore/StructureDefinition/qicore-encounter"]},"status":"finished","class":{"system":"http://terminology.hl7.org/CodeSystem/v3-ActCode","code":"IMP","display":"inpatient encounter","userSelected":true},"type":[{"coding":[{"system":"http://snomed.info/sct","code":"32485007"}]}],"subject":{"reference":"Patient/111e5d36-6549-41fc-ba71-f674e06f87e0"},"period":{"start":"2025-10-10T09:30:00.000+00:00","end":"2025-10-12T10:30:00.000+00:00"},"length":{"value":2,"unit":"days"},"diagnosis":[{"condition":{"reference":"Condition/4c1dd657-35ff-4181-95c7-cbd447cc3009"},"use":{"coding":[{"system":"http://terminology.hl7.org/CodeSystem/diagnosis-role","code":"billing","display":"Billing"}]},"rank":1}]},"request":{"method":"PUT","url":"Encounter/683cdefb-e0df-41c6-9ff6-5e1fe923b6b5"}},{"fullUrl":"https://madie.cms.gov/MedicationRequest/6d5119f1-8794-4231-953f-bace67b37364","resource":{"resourceType":"MedicationRequest","id":"6d5119f1-8794-4231-953f-bace67b37364","meta":{"profile":["http://hl7.org/fhir/us/qicore/StructureDefinition/qicore-mednotrequested"]},"status":"completed","intent":"order","category":[{"coding":[{"system":"http://terminology.hl7.org/CodeSystem/medicationrequest-category","code":"community"}]}],"doNotPerform":true,"medicationCodeableConcept":{"coding":[{"system":"http://www.nlm.nih.gov/research/umls/rxnorm","code":"1037045"}]},"subject":{"reference":"Patient/111e5d36-6549-41fc-ba71-f674e06f87e0"},"authoredOn":"2025-10-12T10:30:00.000+00:00","requester":{"reference":"Practitioner/example"},"reasonCode":[{"coding":[{"system":"http://snomed.info/sct","code":"183932001","display":"Procedure contraindicated (situation)","userSelected":true}]}]},"request":{"method":"PUT","url":"MedicationRequest/6d5119f1-8794-4231-953f-bace67b37364"}},{"fullUrl":"https://madie.cms.gov/Condition/4c1dd657-35ff-4181-95c7-cbd447cc3009","resource":{"resourceType":"Condition","id":"4c1dd657-35ff-4181-95c7-cbd447cc3009","meta":{"profile":["http://hl7.org/fhir/us/qicore/StructureDefinition/qicore-condition"]},"clinicalStatus":{"coding":[{"system":"http://terminology.hl7.org/CodeSystem/condition-clinical","code":"active"}]},"verificationStatus":{"coding":[{"system":"http://terminology.hl7.org/CodeSystem/condition-ver-status","code":"confirmed"}]},"category":[{"coding":[{"system":"http://terminology.hl7.org/CodeSystem/condition-category","code":"encounter-diagnosis","display":"Encounter Diagnosis"}]}],"code":{"coding":[{"system":"http://snomed.info/sct","version":"2020-09","code":"111297002","display":"Nonparalytic stroke (disorder)","userSelected":true}]},"subject":{"reference":"Patient/111e5d36-6549-41fc-ba71-f674e06f87e0"},"recordedDate":"2025-07-14T08:00:00.000+00:00"},"request":{"method":"PUT","url":"Condition/4c1dd657-35ff-4181-95c7-cbd447cc3009"}},{"fullUrl":"https://madie.cms.gov/Coverage/7bd4ca99-1a0f-41d6-ad38-945a0f7a29d4","resource":{"resourceType":"Coverage","id":"7bd4ca99-1a0f-41d6-ad38-945a0f7a29d4","meta":{"profile":["http://hl7.org/fhir/us/qicore/StructureDefinition/qicore-coverage"]},"status":"active","beneficiary":{"reference":"Patient/111e5d36-6549-41fc-ba71-f674e06f87e0"},"payor":[{"reference":"Organization/774f3970-f1ef-4c78-b984-044e6274ac51"}]},"request":{"method":"PUT","url":"Coverage/7bd4ca99-1a0f-41d6-ad38-945a0f7a29d4"}},{"fullUrl":"https://madie.cms.gov/Organization/774f3970-f1ef-4c78-b984-044e6274ac51","resource":{"resourceType":"Organization","id":"774f3970-f1ef-4c78-b984-044e6274ac51","meta":{"profile":["http://hl7.org/fhir/us/qicore/StructureDefinition/qicore-organization"]},"identifier":[{"use":"temp","system":"urn:oid:2.16.840.1.113883.4.4","value":"21-3259825"}],"active":true,"type":[{"coding":[{"system":"http://terminology.hl7.org/CodeSystem/organization-type","code":"pay","display":"Payer"}]}],"name":"Blue Cross Blue Shield of Texas","telecom":[{"system":"phone","value":"(+1) 972-766-6900"}],"address":[{"use":"billing","type":"postal","line":["P.O. Box 660044"],"city":"Dallas","state":"TX","postalCode":"75266-0044","country":"USA"}]},"request":{"method":"PUT","url":"Organization/774f3970-f1ef-4c78-b984-044e6274ac51"}},{"fullUrl":"https://madie.cms.gov/MeasureReport/55a58cd8-1108-4202-b884-243ed75ec2e2","resource":{"resourceType":"MeasureReport","id":"55a58cd8-1108-4202-b884-243ed75ec2e2","meta":{"profile":["http://hl7.org/fhir/us/cqfmeasures/StructureDefinition/test-case-cqfm"]},"contained":[{"resourceType":"Parameters","id":"36d1661b-c1d9-41d8-8174-1435122dced7-parameters","parameter":[{"name":"subject","valueString":"111e5d36-6549-41fc-ba71-f674e06f87e0"}]}],"extension":[{"url":"http://hl7.org/fhir/us/cqfmeasures/StructureDefinition/cqfm-inputParameters","valueReference":{"reference":"#36d1661b-c1d9-41d8-8174-1435122dced7-parameters"}},{"url":"http://hl7.org/fhir/us/cqfmeasures/StructureDefinition/cqfm-testCaseDescription","valueMarkdown":"Patient does not get antithrombotic medication due to medical reasons after IP encounter. This case tests the timing boundary for den exception criteria. "}],"modifierExtension":[{"url":"http://hl7.org/fhir/us/cqfmeasures/StructureDefinition/cqfm-isTestCase","valueBoolean":true}],"status":"complete","type":"individual","measure":"https://madie.cms.gov/Measure/DischargedonAntithromboticTherapyFHIR","period":{"start":"2025-01-01","end":"2025-12-31"},"group":[{"population":[{"code":{"coding":[{"system":"http://terminology.hl7.org/CodeSystem/measure-population","code":"initial-population","display":"Initial Population"}]},"count":1},{"code":{"coding":[{"system":"http://terminology.hl7.org/CodeSystem/measure-population","code":"denominator","display":"Denominator"}]},"count":1},{"code":{"coding":[{"system":"http://terminology.hl7.org/CodeSystem/measure-population","code":"denominator-exclusion","display":"Denominator Exclusion"}]},"count":0},{"code":{"coding":[{"system":"http://terminology.hl7.org/CodeSystem/measure-population","code":"numerator","display":"Numerator"}]},"count":0},{"code":{"coding":[{"system":"http://terminology.hl7.org/CodeSystem/measure-population","code":"denominator-exception","display":"Denominator Exception"}]},"count":1}]}],"evaluatedResource":[{"reference":"Patient/111e5d36-6549-41fc-ba71-f674e06f87e0"},{"reference":"Encounter/683cdefb-e0df-41c6-9ff6-5e1fe923b6b5"},{"reference":"MedicationRequest/6d5119f1-8794-4231-953f-bace67b37364"},{"reference":"Condition/4c1dd657-35ff-4181-95c7-cbd447cc3009"},{"reference":"Coverage/7bd4ca99-1a0f-41d6-ad38-945a0f7a29d4"},{"reference":"Organization/774f3970-f1ef-4c78-b984-044e6274ac51"}]},"request":{"method":"PUT","url":"MeasureReport/55a58cd8-1108-4202-b884-243ed75ec2e2"}}]}