{"resourceType":"Bundle","id":"tests-7ed29290-b918-47ef-975e-cdd384a425c3-bundle","type":"transaction","entry":[{"fullUrl":"https://madie.cms.gov/Patient/7ed29290-b918-47ef-975e-cdd384a425c3","resource":{"resourceType":"Patient","id":"7ed29290-b918-47ef-975e-cdd384a425c3","meta":{"profile":["http://hl7.org/fhir/us/qicore/StructureDefinition/qicore-patient"]},"text":{"status":"generated","div":"<div xmlns=\"http://www.w3.org/1999/xhtml\"><div class=\"hapiHeaderText\">CMOdurED_ED=1hrNoObsBFEnc <b>DENEXPASS </b></div><table class=\"hapiPropertyTable\"><tbody><tr><td>Identifier</td><td>fad666e4c2c1dfdd2a733d377f721b1d97a846f6f50f3ff47ba2a0a21aa13fc6</td></tr><tr><td>Date of birth</td><td><span>21 August 1994</span></td></tr></tbody></table></div>"},"extension":[{"url":"http://hl7.org/fhir/us/core/StructureDefinition/us-core-race","extension":[{"url":"ombCategory","valueCoding":{"system":"urn:oid:2.16.840.1.113883.6.238","code":"1002-5","display":"American Indian or Alaska Native","userSelected":true}},{"url":"text","valueString":"American Indian or Alaska Native"}]},{"url":"http://hl7.org/fhir/us/core/StructureDefinition/us-core-ethnicity","extension":[{"url":"ombCategory","valueCoding":{"system":"urn:oid:2.16.840.1.113883.6.238","code":"2135-2","display":"Hispanic or Latino","userSelected":true}},{"url":"text","valueString":"Hispanic or Latino"}]}],"identifier":[{"type":{"coding":[{"system":"http://terminology.hl7.org/CodeSystem/v2-0203","code":"MR"}]},"system":"https://bonnie-fhir.healthit.gov/","value":"6129134c02c62a011f2e70ac"}],"active":true,"name":[{"use":"usual","family":"DENEXPass","given":["CMOdurED_ED=1hrNoObsBFEnc"]}],"gender":"male","birthDate":"1994-08-21"},"request":{"method":"PUT","url":"Patient/7ed29290-b918-47ef-975e-cdd384a425c3"}},{"fullUrl":"https://madie.cms.gov/Encounter/8cefff33-046f-4a70-99f3-4514253cc76e","resource":{"resourceType":"Encounter","id":"8cefff33-046f-4a70-99f3-4514253cc76e","meta":{"profile":["http://hl7.org/fhir/us/qicore/StructureDefinition/qicore-encounter"]},"status":"finished","class":{"system":"http://terminology.hl7.org/CodeSystem/v3-ActCode","code":"EMER","display":"emergency","userSelected":true},"type":[{"coding":[{"system":"http://snomed.info/sct","code":"4525004"}]}],"subject":{"reference":"Patient/7ed29290-b918-47ef-975e-cdd384a425c3"},"period":{"start":"2025-10-10T09:30:00.000+00:00","end":"2025-10-10T10:30:00.000+00:00"},"length":{"value":0,"unit":"days"}},"request":{"method":"PUT","url":"Encounter/8cefff33-046f-4a70-99f3-4514253cc76e"}},{"fullUrl":"https://madie.cms.gov/Encounter/903fc624-ebe7-459c-ac6e-c1adeae01a15","resource":{"resourceType":"Encounter","id":"903fc624-ebe7-459c-ac6e-c1adeae01a15","meta":{"profile":["http://hl7.org/fhir/us/qicore/StructureDefinition/qicore-encounter"]},"status":"finished","class":{"system":"http://terminology.hl7.org/CodeSystem/v3-ActCode","code":"IMP","display":"inpatient encounter","userSelected":true},"type":[{"coding":[{"system":"http://snomed.info/sct","code":"32485007"}]}],"subject":{"reference":"Patient/7ed29290-b918-47ef-975e-cdd384a425c3"},"period":{"start":"2025-10-10T11:30:00.000+00:00","end":"2025-10-12T11:30:00.000+00:00"},"length":{"value":2,"unit":"days"},"diagnosis":[{"condition":{"reference":"Condition/5cf2aebd-1179-4825-8b7b-17b5d2366131"},"use":{"coding":[{"system":"http://terminology.hl7.org/CodeSystem/diagnosis-role","code":"billing","display":"Billing"}]},"rank":1}]},"request":{"method":"PUT","url":"Encounter/903fc624-ebe7-459c-ac6e-c1adeae01a15"}},{"fullUrl":"https://madie.cms.gov/ServiceRequest/b39f6213-89b1-4d63-af66-80379670753d","resource":{"resourceType":"ServiceRequest","id":"b39f6213-89b1-4d63-af66-80379670753d","meta":{"profile":["http://hl7.org/fhir/us/qicore/StructureDefinition/qicore-servicerequest"]},"status":"active","intent":"order","code":{"coding":[{"system":"http://snomed.info/sct","code":"133918004"}]},"subject":{"reference":"Patient/7ed29290-b918-47ef-975e-cdd384a425c3"},"authoredOn":"2025-10-10T09:30:00.000+00:00"},"request":{"method":"PUT","url":"ServiceRequest/b39f6213-89b1-4d63-af66-80379670753d"}},{"fullUrl":"https://madie.cms.gov/Condition/5cf2aebd-1179-4825-8b7b-17b5d2366131","resource":{"resourceType":"Condition","id":"5cf2aebd-1179-4825-8b7b-17b5d2366131","meta":{"profile":["http://hl7.org/fhir/us/qicore/StructureDefinition/qicore-condition"]},"clinicalStatus":{"coding":[{"system":"http://terminology.hl7.org/CodeSystem/condition-clinical","code":"active"}]},"verificationStatus":{"coding":[{"system":"http://terminology.hl7.org/CodeSystem/condition-ver-status","code":"confirmed"}]},"category":[{"coding":[{"system":"http://terminology.hl7.org/CodeSystem/condition-category","code":"encounter-diagnosis","display":"Encounter Diagnosis"}]}],"code":{"coding":[{"system":"http://snomed.info/sct","version":"2020-09","code":"111297002","display":"Nonparalytic stroke (disorder)","userSelected":true}]},"subject":{"reference":"Patient/7ed29290-b918-47ef-975e-cdd384a425c3"},"recordedDate":"2025-07-14T08:00:00.000+00:00"},"request":{"method":"PUT","url":"Condition/5cf2aebd-1179-4825-8b7b-17b5d2366131"}},{"fullUrl":"https://madie.cms.gov/Coverage/65f3e200-6bb1-40e1-900c-7b1d597a8b0c","resource":{"resourceType":"Coverage","id":"65f3e200-6bb1-40e1-900c-7b1d597a8b0c","meta":{"profile":["http://hl7.org/fhir/us/qicore/StructureDefinition/qicore-coverage"]},"status":"active","beneficiary":{"reference":"Patient/7ed29290-b918-47ef-975e-cdd384a425c3"},"payor":[{"reference":"Organization/5b8bf7f9-87cb-4d8c-881d-d88c61ab208a"}]},"request":{"method":"PUT","url":"Coverage/65f3e200-6bb1-40e1-900c-7b1d597a8b0c"}},{"fullUrl":"https://madie.cms.gov/Organization/5b8bf7f9-87cb-4d8c-881d-d88c61ab208a","resource":{"resourceType":"Organization","id":"5b8bf7f9-87cb-4d8c-881d-d88c61ab208a","meta":{"profile":["http://hl7.org/fhir/us/qicore/StructureDefinition/qicore-organization"]},"identifier":[{"use":"temp","system":"urn:oid:2.16.840.1.113883.4.4","value":"21-3259825"}],"active":true,"type":[{"coding":[{"system":"http://terminology.hl7.org/CodeSystem/organization-type","code":"pay","display":"Payer"}]}],"name":"Blue Cross Blue Shield of Texas","telecom":[{"system":"phone","value":"(+1) 972-766-6900"}],"address":[{"use":"billing","type":"postal","line":["P.O. Box 660044"],"city":"Dallas","state":"TX","postalCode":"75266-0044","country":"USA"}]},"request":{"method":"PUT","url":"Organization/5b8bf7f9-87cb-4d8c-881d-d88c61ab208a"}},{"fullUrl":"https://madie.cms.gov/MeasureReport/44e40a9e-6f57-45e3-9ca1-51af8c56b715","resource":{"resourceType":"MeasureReport","id":"44e40a9e-6f57-45e3-9ca1-51af8c56b715","meta":{"profile":["http://hl7.org/fhir/us/cqfmeasures/StructureDefinition/test-case-cqfm"]},"contained":[{"resourceType":"Parameters","id":"372fa7bd-b3b2-4d91-854a-163a98e9bc18-parameters","parameter":[{"name":"subject","valueString":"7ed29290-b918-47ef-975e-cdd384a425c3"}]}],"extension":[{"url":"http://hl7.org/fhir/us/cqfmeasures/StructureDefinition/cqfm-inputParameters","valueReference":{"reference":"#372fa7bd-b3b2-4d91-854a-163a98e9bc18-parameters"}},{"url":"http://hl7.org/fhir/us/cqfmeasures/StructureDefinition/cqfm-testCaseDescription","valueMarkdown":"Patient receives CMO during ED. ED ends 60 minute before inpatient encounter start. No Observation. Testing day of operator with HospitalizationWithObservation function."}],"modifierExtension":[{"url":"http://hl7.org/fhir/us/cqfmeasures/StructureDefinition/cqfm-isTestCase","valueBoolean":true}],"status":"complete","type":"individual","measure":"https://madie.cms.gov/Measure/DischargedonAntithromboticTherapyFHIR","period":{"start":"2025-01-01","end":"2025-12-31"},"group":[{"population":[{"code":{"coding":[{"system":"http://terminology.hl7.org/CodeSystem/measure-population","code":"initial-population","display":"Initial Population"}]},"count":1},{"code":{"coding":[{"system":"http://terminology.hl7.org/CodeSystem/measure-population","code":"denominator","display":"Denominator"}]},"count":1},{"code":{"coding":[{"system":"http://terminology.hl7.org/CodeSystem/measure-population","code":"denominator-exclusion","display":"Denominator Exclusion"}]},"count":1},{"code":{"coding":[{"system":"http://terminology.hl7.org/CodeSystem/measure-population","code":"numerator","display":"Numerator"}]},"count":0},{"code":{"coding":[{"system":"http://terminology.hl7.org/CodeSystem/measure-population","code":"denominator-exception","display":"Denominator Exception"}]},"count":0}]}],"evaluatedResource":[{"reference":"Patient/7ed29290-b918-47ef-975e-cdd384a425c3"},{"reference":"Encounter/8cefff33-046f-4a70-99f3-4514253cc76e"},{"reference":"Encounter/903fc624-ebe7-459c-ac6e-c1adeae01a15"},{"reference":"ServiceRequest/b39f6213-89b1-4d63-af66-80379670753d"},{"reference":"Condition/5cf2aebd-1179-4825-8b7b-17b5d2366131"},{"reference":"Coverage/65f3e200-6bb1-40e1-900c-7b1d597a8b0c"},{"reference":"Organization/5b8bf7f9-87cb-4d8c-881d-d88c61ab208a"}]},"request":{"method":"PUT","url":"MeasureReport/44e40a9e-6f57-45e3-9ca1-51af8c56b715"}}]}