{"resourceType":"Bundle","id":"tests-326b13e2-9c8b-4b7e-aba8-ff7b74589546-bundle","type":"transaction","entry":[{"fullUrl":"https://madie.cms.gov/Patient/326b13e2-9c8b-4b7e-aba8-ff7b74589546","resource":{"resourceType":"Patient","id":"326b13e2-9c8b-4b7e-aba8-ff7b74589546","meta":{"profile":["http://hl7.org/fhir/us/qicore/StructureDefinition/qicore-patient"]},"text":{"status":"generated","div":"<div xmlns=\"http://www.w3.org/1999/xhtml\"><div class=\"hapiHeaderText\">CMOdurED_ED=1hrObs=1hrBFEnc <b>DENEXPASS </b></div><table class=\"hapiPropertyTable\"><tbody><tr><td>Identifier</td><td>2af1bfa71528978fd91ee5e826bec671ef1ea1688c1d7786aa6df361c02306ba</td></tr><tr><td>Date of birth</td><td><span>21 August 1994</span></td></tr></tbody></table></div>"},"extension":[{"url":"http://hl7.org/fhir/us/core/StructureDefinition/us-core-race","extension":[{"url":"ombCategory","valueCoding":{"system":"urn:oid:2.16.840.1.113883.6.238","code":"1002-5","display":"American Indian or Alaska Native","userSelected":true}},{"url":"text","valueString":"American Indian or Alaska Native"}]},{"url":"http://hl7.org/fhir/us/core/StructureDefinition/us-core-ethnicity","extension":[{"url":"ombCategory","valueCoding":{"system":"urn:oid:2.16.840.1.113883.6.238","code":"2135-2","display":"Hispanic or Latino","userSelected":true}},{"url":"text","valueString":"Hispanic or Latino"}]}],"identifier":[{"type":{"coding":[{"system":"http://terminology.hl7.org/CodeSystem/v2-0203","code":"MR"}]},"system":"https://bonnie-fhir.healthit.gov/","value":"6129134e02c62a011f2e71b4"}],"active":true,"name":[{"use":"usual","family":"DENEXPass","given":["CMOdurED_ED=1hrObs=1hrBFEnc"]}],"gender":"male","birthDate":"1994-08-21"},"request":{"method":"PUT","url":"Patient/326b13e2-9c8b-4b7e-aba8-ff7b74589546"}},{"fullUrl":"https://madie.cms.gov/Encounter/272d1304-fde7-471c-bd4a-e4a364422b7b","resource":{"resourceType":"Encounter","id":"272d1304-fde7-471c-bd4a-e4a364422b7b","meta":{"profile":["http://hl7.org/fhir/us/qicore/StructureDefinition/qicore-encounter"]},"status":"finished","class":{"system":"http://terminology.hl7.org/CodeSystem/v3-ActCode","code":"EMER","display":"emergency","userSelected":true},"type":[{"coding":[{"system":"http://snomed.info/sct","code":"4525004"}]}],"subject":{"reference":"Patient/326b13e2-9c8b-4b7e-aba8-ff7b74589546"},"period":{"start":"2025-10-10T09:30:00.000+00:00","end":"2025-10-10T10:30:00.000+00:00"},"length":{"value":0,"unit":"days"}},"request":{"method":"PUT","url":"Encounter/272d1304-fde7-471c-bd4a-e4a364422b7b"}},{"fullUrl":"https://madie.cms.gov/Encounter/4af91f3c-2705-4dde-8ad6-8a58a63b6a2e","resource":{"resourceType":"Encounter","id":"4af91f3c-2705-4dde-8ad6-8a58a63b6a2e","meta":{"profile":["http://hl7.org/fhir/us/qicore/StructureDefinition/qicore-encounter"]},"status":"finished","class":{"system":"http://terminology.hl7.org/CodeSystem/v3-ActCode","code":"OBSENC","display":"observation encounter","userSelected":true},"type":[{"coding":[{"system":"http://snomed.info/sct","code":"448851000124103"}]}],"subject":{"reference":"Patient/326b13e2-9c8b-4b7e-aba8-ff7b74589546"},"period":{"start":"2025-10-10T10:30:00.000+00:00","end":"2025-10-10T10:35:00.000+00:00"},"length":{"value":0,"unit":"days"}},"request":{"method":"PUT","url":"Encounter/4af91f3c-2705-4dde-8ad6-8a58a63b6a2e"}},{"fullUrl":"https://madie.cms.gov/Encounter/96b1bb96-69ce-4977-8fb6-16b3e6c44b58","resource":{"resourceType":"Encounter","id":"96b1bb96-69ce-4977-8fb6-16b3e6c44b58","meta":{"profile":["http://hl7.org/fhir/us/qicore/StructureDefinition/qicore-encounter"]},"status":"finished","class":{"system":"http://terminology.hl7.org/CodeSystem/v3-ActCode","code":"IMP","display":"inpatient encounter","userSelected":true},"type":[{"coding":[{"system":"http://snomed.info/sct","code":"32485007"}]}],"subject":{"reference":"Patient/326b13e2-9c8b-4b7e-aba8-ff7b74589546"},"period":{"start":"2025-10-10T10:35:00.000+00:00","end":"2025-10-12T11:30:00.000+00:00"},"length":{"value":2,"unit":"days"},"diagnosis":[{"condition":{"reference":"Condition/a00b5c29-05ef-4917-8e8c-6cb326f5dc0a"},"use":{"coding":[{"system":"http://terminology.hl7.org/CodeSystem/diagnosis-role","code":"billing","display":"Billing"}]},"rank":1}]},"request":{"method":"PUT","url":"Encounter/96b1bb96-69ce-4977-8fb6-16b3e6c44b58"}},{"fullUrl":"https://madie.cms.gov/ServiceRequest/0902fa57-1f37-4336-8a75-2b855a3de1ac","resource":{"resourceType":"ServiceRequest","id":"0902fa57-1f37-4336-8a75-2b855a3de1ac","meta":{"profile":["http://hl7.org/fhir/us/qicore/StructureDefinition/qicore-servicerequest"]},"status":"active","intent":"order","code":{"coding":[{"system":"http://snomed.info/sct","code":"133918004"}]},"subject":{"reference":"Patient/326b13e2-9c8b-4b7e-aba8-ff7b74589546"},"authoredOn":"2025-10-10T09:30:00.000+00:00"},"request":{"method":"PUT","url":"ServiceRequest/0902fa57-1f37-4336-8a75-2b855a3de1ac"}},{"fullUrl":"https://madie.cms.gov/Condition/a00b5c29-05ef-4917-8e8c-6cb326f5dc0a","resource":{"resourceType":"Condition","id":"a00b5c29-05ef-4917-8e8c-6cb326f5dc0a","meta":{"profile":["http://hl7.org/fhir/us/qicore/StructureDefinition/qicore-condition"]},"clinicalStatus":{"coding":[{"system":"http://terminology.hl7.org/CodeSystem/condition-clinical","code":"active"}]},"verificationStatus":{"coding":[{"system":"http://terminology.hl7.org/CodeSystem/condition-ver-status","code":"confirmed"}]},"category":[{"coding":[{"system":"http://terminology.hl7.org/CodeSystem/condition-category","code":"encounter-diagnosis","display":"Encounter Diagnosis"}]}],"code":{"coding":[{"system":"http://snomed.info/sct","version":"2020-09","code":"111297002","display":"Nonparalytic stroke (disorder)","userSelected":true}]},"subject":{"reference":"Patient/326b13e2-9c8b-4b7e-aba8-ff7b74589546"},"recordedDate":"2025-07-14T08:00:00.000+00:00"},"request":{"method":"PUT","url":"Condition/a00b5c29-05ef-4917-8e8c-6cb326f5dc0a"}},{"fullUrl":"https://madie.cms.gov/Coverage/6e3b9e65-03fc-4e70-bf57-caba57eb2642","resource":{"resourceType":"Coverage","id":"6e3b9e65-03fc-4e70-bf57-caba57eb2642","meta":{"profile":["http://hl7.org/fhir/us/qicore/StructureDefinition/qicore-coverage"]},"status":"active","beneficiary":{"reference":"Patient/326b13e2-9c8b-4b7e-aba8-ff7b74589546"},"payor":[{"reference":"Organization/a21aae92-4a08-430e-ae01-241f09aca099"}]},"request":{"method":"PUT","url":"Coverage/6e3b9e65-03fc-4e70-bf57-caba57eb2642"}},{"fullUrl":"https://madie.cms.gov/Organization/a21aae92-4a08-430e-ae01-241f09aca099","resource":{"resourceType":"Organization","id":"a21aae92-4a08-430e-ae01-241f09aca099","meta":{"profile":["http://hl7.org/fhir/us/qicore/StructureDefinition/qicore-organization"]},"identifier":[{"use":"temp","system":"urn:oid:2.16.840.1.113883.4.4","value":"21-3259825"}],"active":true,"type":[{"coding":[{"system":"http://terminology.hl7.org/CodeSystem/organization-type","code":"pay","display":"Payer"}]}],"name":"Blue Cross Blue Shield of Texas","telecom":[{"system":"phone","value":"(+1) 972-766-6900"}],"address":[{"use":"billing","type":"postal","line":["P.O. Box 660044"],"city":"Dallas","state":"TX","postalCode":"75266-0044","country":"USA"}]},"request":{"method":"PUT","url":"Organization/a21aae92-4a08-430e-ae01-241f09aca099"}},{"fullUrl":"https://madie.cms.gov/MeasureReport/34f55ed9-c858-449e-b26d-c1cce244ce76","resource":{"resourceType":"MeasureReport","id":"34f55ed9-c858-449e-b26d-c1cce244ce76","meta":{"profile":["http://hl7.org/fhir/us/cqfmeasures/StructureDefinition/test-case-cqfm"]},"contained":[{"resourceType":"Parameters","id":"5dbc762c-b431-4436-a5a5-c7293c3e088e-parameters","parameter":[{"name":"subject","valueString":"326b13e2-9c8b-4b7e-aba8-ff7b74589546"}]}],"extension":[{"url":"http://hl7.org/fhir/us/cqfmeasures/StructureDefinition/cqfm-inputParameters","valueReference":{"reference":"#5dbc762c-b431-4436-a5a5-c7293c3e088e-parameters"}},{"url":"http://hl7.org/fhir/us/cqfmeasures/StructureDefinition/cqfm-testCaseDescription","valueMarkdown":"Patient receives CMO during ED. ED ends 60 minute before Observation. Obs ends 60 min before IP start. Testing day of operator with HospitalizationWithObservation function."}],"modifierExtension":[{"url":"http://hl7.org/fhir/us/cqfmeasures/StructureDefinition/cqfm-isTestCase","valueBoolean":true}],"status":"complete","type":"individual","measure":"https://madie.cms.gov/Measure/DischargedonAntithromboticTherapyFHIR","period":{"start":"2025-01-01","end":"2025-12-31"},"group":[{"population":[{"code":{"coding":[{"system":"http://terminology.hl7.org/CodeSystem/measure-population","code":"initial-population","display":"Initial Population"}]},"count":1},{"code":{"coding":[{"system":"http://terminology.hl7.org/CodeSystem/measure-population","code":"denominator","display":"Denominator"}]},"count":1},{"code":{"coding":[{"system":"http://terminology.hl7.org/CodeSystem/measure-population","code":"denominator-exclusion","display":"Denominator Exclusion"}]},"count":1},{"code":{"coding":[{"system":"http://terminology.hl7.org/CodeSystem/measure-population","code":"numerator","display":"Numerator"}]},"count":0},{"code":{"coding":[{"system":"http://terminology.hl7.org/CodeSystem/measure-population","code":"denominator-exception","display":"Denominator Exception"}]},"count":0}]}],"evaluatedResource":[{"reference":"Patient/326b13e2-9c8b-4b7e-aba8-ff7b74589546"},{"reference":"Encounter/272d1304-fde7-471c-bd4a-e4a364422b7b"},{"reference":"Encounter/4af91f3c-2705-4dde-8ad6-8a58a63b6a2e"},{"reference":"Encounter/96b1bb96-69ce-4977-8fb6-16b3e6c44b58"},{"reference":"ServiceRequest/0902fa57-1f37-4336-8a75-2b855a3de1ac"},{"reference":"Condition/a00b5c29-05ef-4917-8e8c-6cb326f5dc0a"},{"reference":"Coverage/6e3b9e65-03fc-4e70-bf57-caba57eb2642"},{"reference":"Organization/a21aae92-4a08-430e-ae01-241f09aca099"}]},"request":{"method":"PUT","url":"MeasureReport/34f55ed9-c858-449e-b26d-c1cce244ce76"}}]}