{
  "resourceType": "Bundle",
  "id": "633b3f9e0968f80122503cd4",
  "type": "transaction",
  "entry": [
    {
      "fullUrl": "https://madie.cms.gov/Patient/6384c978-83d9-40a0-805c-234bbf130721",
      "resource": {
        "resourceType": "Patient",
        "id": "6384c978-83d9-40a0-805c-234bbf130721",
        "meta": {
          "profile": [
            "http://hl7.org/fhir/us/qicore/StructureDefinition/qicore-patient"
          ]
        },
        "text": {
          "status": "generated",
          "div": "<div xmlns=\"http://www.w3.org/1999/xhtml\"><div class=\"hapiHeaderText\">LastAssPrfEstDELRelvTm_00Hr00Min00Sec_EQDELRsltDtTime <b>DENOMPASS </b></div><table class=\"hapiPropertyTable\"><tbody><tr><td>Date of birth</td><td><span>01 February 2004</span></td></tr></tbody></table></div>"
        },
        "extension": [
          {
            "url": "http://hl7.org/fhir/us/core/StructureDefinition/us-core-race",
            "extension": [
              {
                "url": "ombCategory",
                "valueCoding": {
                  "system": "urn:oid:2.16.840.1.113883.6.238",
                  "code": "1002-5",
                  "display": "American Indian or Alaska Native",
                  "userSelected": true
                }
              },
              {
                "url": "text",
                "valueString": "American Indian or Alaska Native"
              }
            ]
          },
          {
            "url": "http://hl7.org/fhir/us/core/StructureDefinition/us-core-ethnicity",
            "extension": [
              {
                "url": "ombCategory",
                "valueCoding": {
                  "system": "urn:oid:2.16.840.1.113883.6.238",
                  "code": "2135-2",
                  "display": "Hispanic or Latino",
                  "userSelected": true
                }
              },
              {
                "url": "text",
                "valueString": "Hispanic or Latino"
              }
            ]
          }
        ],
        "identifier": [
          {
            "type": {
              "coding": [
                {
                  "system": "http://terminology.hl7.org/CodeSystem/v2-0203",
                  "code": "MR"
                }
              ]
            },
            "system": "https://bonnie-fhir.healthit.gov/",
            "value": "633b3f9e0968f80122503cd4"
          }
        ],
        "active": true,
        "name": [
          {
            "use": "usual",
            "family": "DENOMPass",
            "given": [
              "LastAssPrfEstDELRelvTm_00Hr00Min00Sec_EQDELRsltDtTime"
            ]
          }
        ],
        "gender": "female",
        "birthDate": "2004-02-01"
      },
      "request": {
        "method": "PUT",
        "url": "Patient/6384c978-83d9-40a0-805c-234bbf130721"
      }
    },
    {
      "fullUrl": "https://madie.cms.gov/Observation/f8bd18e4-90dd-4e87-aae1-6e779dfe615c",
      "resource": {
        "resourceType": "Observation",
        "id": "f8bd18e4-90dd-4e87-aae1-6e779dfe615c",
        "meta": {
          "profile": [
            "http://hl7.org/fhir/us/qicore/StructureDefinition/qicore-observation"
          ]
        },
        "status": "final",
        "category": [
          {
            "coding": [
              {
                "system": "http://terminology.hl7.org/CodeSystem/observation-category",
                "code": "exam",
                "display": "exam",
                "userSelected": true
              }
            ]
          }
        ],
        "code": {
          "coding": [
            {
              "system": "http://loinc.org",
              "code": "93857-1"
            }
          ]
        },
        "subject": {
          "reference": "Patient/6384c978-83d9-40a0-805c-234bbf130721"
        },
        "effectiveDateTime": "2024-02-01T08:00:00.000+00:00",
        "valueDateTime": "2024-02-01T08:00:00+00:00"
      },
      "request": {
        "method": "PUT",
        "url": "Observation/f8bd18e4-90dd-4e87-aae1-6e779dfe615c"
      }
    },
    {
      "fullUrl": "https://madie.cms.gov/Observation/9bec15b4-4d83-4b33-9bfb-b04731f9adfc",
      "resource": {
        "resourceType": "Observation",
        "id": "9bec15b4-4d83-4b33-9bfb-b04731f9adfc",
        "meta": {
          "profile": [
            "http://hl7.org/fhir/us/qicore/StructureDefinition/qicore-observation"
          ]
        },
        "status": "final",
        "category": [
          {
            "coding": [
              {
                "system": "http://terminology.hl7.org/CodeSystem/observation-category",
                "code": "exam",
                "display": "exam",
                "userSelected": true
              }
            ]
          }
        ],
        "code": {
          "coding": [
            {
              "system": "http://loinc.org",
              "code": "11778-8"
            }
          ]
        },
        "subject": {
          "reference": "Patient/6384c978-83d9-40a0-805c-234bbf130721"
        },
        "effectiveDateTime": "2024-02-01T08:00:00.000+00:00",
        "valueDateTime": "2024-02-01T08:00:00.000+00:00"
      },
      "request": {
        "method": "PUT",
        "url": "Observation/9bec15b4-4d83-4b33-9bfb-b04731f9adfc"
      }
    },
    {
      "fullUrl": "https://madie.cms.gov/Encounter/69537e37-5410-4018-97f5-a6aab7f11fe5",
      "resource": {
        "resourceType": "Encounter",
        "id": "69537e37-5410-4018-97f5-a6aab7f11fe5",
        "meta": {
          "profile": [
            "http://hl7.org/fhir/us/qicore/StructureDefinition/qicore-encounter"
          ]
        },
        "status": "finished",
        "class": {
          "system": "http://terminology.hl7.org/CodeSystem/v3-ActCode",
          "code": "IMP",
          "display": "inpatient encounter"
        },
        "type": [
          {
            "coding": [
              {
                "system": "http://snomed.info/sct",
                "code": "183452005"
              }
            ]
          }
        ],
        "subject": {
          "reference": "Patient/6384c978-83d9-40a0-805c-234bbf130721"
        },
        "period": {
          "start": "2024-02-01T08:00:00.000Z",
          "end": "2024-02-05T08:15:00.000Z"
        }
      },
      "request": {
        "method": "PUT",
        "url": "Encounter/69537e37-5410-4018-97f5-a6aab7f11fe5"
      }
    },
    {
      "fullUrl": "https://madie.cms.gov/Procedure/f6e1bfca-bb3d-446c-bb0c-ee47aa0b2f15",
      "resource": {
        "resourceType": "Procedure",
        "id": "f6e1bfca-bb3d-446c-bb0c-ee47aa0b2f15",
        "meta": {
          "profile": [
            "http://hl7.org/fhir/us/qicore/StructureDefinition/qicore-procedure"
          ]
        },
        "extension": [
          {
            "url": "http://hl7.org/fhir/us/qicore/StructureDefinition/qicore-recorded",
            "valueDateTime": "2013-04-05T09:35:00-04:00"
          }
        ],
        "status": "completed",
        "code": {
          "coding": [
            {
              "system": "http://snomed.info/sct",
              "code": "10745001"
            }
          ]
        },
        "subject": {
          "reference": "Patient/6384c978-83d9-40a0-805c-234bbf130721"
        },
        "performedPeriod": {
          "start": "2024-02-01T08:00:00.000Z",
          "end": "2024-02-05T08:15:00.000Z"
        }
      },
      "request": {
        "method": "PUT",
        "url": "Procedure/f6e1bfca-bb3d-446c-bb0c-ee47aa0b2f15"
      }
    },
    {
      "fullUrl": "https://madie.cms.gov/Coverage/c369018b-a5da-4731-bd18-8defae5fc605",
      "resource": {
        "resourceType": "Coverage",
        "id": "c369018b-a5da-4731-bd18-8defae5fc605",
        "meta": {
          "profile": [
            "http://hl7.org/fhir/us/qicore/StructureDefinition/qicore-coverage"
          ]
        },
        "status": "active",
        "beneficiary": {
          "reference": "Patient/6384c978-83d9-40a0-805c-234bbf130721"
        },
        "payor": [
          {
            "reference": "Organization/a5eac956-2122-434c-97ae-e214c5b3504f"
          }
        ]
      },
      "request": {
        "method": "PUT",
        "url": "Coverage/c369018b-a5da-4731-bd18-8defae5fc605"
      }
    },
    {
      "fullUrl": "https://madie.cms.gov/Organization/a5eac956-2122-434c-97ae-e214c5b3504f",
      "resource": {
        "resourceType": "Organization",
        "id": "a5eac956-2122-434c-97ae-e214c5b3504f",
        "meta": {
          "profile": [
            "http://hl7.org/fhir/us/qicore/StructureDefinition/qicore-organization"
          ]
        },
        "identifier": [
          {
            "use": "temp",
            "system": "urn:oid:2.16.840.1.113883.4.4",
            "value": "21-3259825"
          }
        ],
        "active": true,
        "type": [
          {
            "coding": [
              {
                "system": "http://terminology.hl7.org/CodeSystem/organization-type",
                "code": "pay",
                "display": "Payer"
              }
            ]
          }
        ],
        "name": "Blue Cross Blue Shield of Texas",
        "telecom": [
          {
            "system": "phone",
            "value": "(+1) 972-766-6900"
          }
        ],
        "address": [
          {
            "use": "billing",
            "type": "postal",
            "line": [
              "P.O. Box 660044"
            ],
            "city": "Dallas",
            "state": "TX",
            "postalCode": "75266-0044",
            "country": "USA"
          }
        ]
      },
      "request": {
        "method": "PUT",
        "url": "Organization/a5eac956-2122-434c-97ae-e214c5b3504f"
      }
    },
    {
      "fullUrl": "https://madie.cms.gov/Practitioner/af616c7a-42ab-4b4d-8e93-26beb7034464",
      "resource": {
        "resourceType": "Practitioner",
        "id": "af616c7a-42ab-4b4d-8e93-26beb7034464",
        "identifier": [
          {
            "system": "http://hl7.org/fhir/sid/us-npi",
            "value": "123456"
          }
        ],
        "name": [
          {
            "family": "Evil",
            "prefix": [
              "Dr"
            ]
          }
        ]
      },
      "request": {
        "method": "PUT",
        "url": "Practitioner/af616c7a-42ab-4b4d-8e93-26beb7034464"
      }
    },
    {
      "fullUrl": "https://madie.cms.gov/MeasureReport/2f850d61-542c-4afe-bd73-5aa9822fdfb2",
      "resource": {
        "resourceType": "MeasureReport",
        "id": "2f850d61-542c-4afe-bd73-5aa9822fdfb2",
        "meta": {
          "profile": [
            "http://hl7.org/fhir/us/cqfmeasures/StructureDefinition/test-case-cqfm"
          ]
        },
        "contained": [
          {
            "resourceType": "Parameters",
            "id": "5837818c-0a63-4155-8b02-f39e1c785322-parameters",
            "parameter": [
              {
                "name": "subject",
                "valueString": "6384c978-83d9-40a0-805c-234bbf130721"
              }
            ]
          }
        ],
        "extension": [
          {
            "url": "http://hl7.org/fhir/us/cqfmeasures/StructureDefinition/cqfm-inputParameters",
            "valueReference": {
              "reference": "#5837818c-0a63-4155-8b02-f39e1c785322-parameters"
            }
          },
          {
            "url": "http://hl7.org/fhir/us/cqfmeasures/StructureDefinition/cqfm-testCaseDescription",
            "valueMarkdown": "Last assessment Performed, Estimated Delivery Date, Relevant time, equal to Delivery Result Date/Time\n"
          }
        ],
        "modifierExtension": [
          {
            "url": "http://hl7.org/fhir/us/cqfmeasures/StructureDefinition/cqfm-isTestCase",
            "valueBoolean": true
          }
        ],
        "status": "complete",
        "type": "individual",
        "measure": "https://madie.cms.gov/Measure/SevereObstetricComplicationsFHIR",
        "period": {
          "start": "2024-01-01",
          "end": "2024-12-31"
        },
        "group": [
          {
            "population": [
              {
                "code": {
                  "coding": [
                    {
                      "system": "http://terminology.hl7.org/CodeSystem/measure-population",
                      "code": "initial-population",
                      "display": "Initial Population"
                    }
                  ]
                },
                "count": 1
              },
              {
                "code": {
                  "coding": [
                    {
                      "system": "http://terminology.hl7.org/CodeSystem/measure-population",
                      "code": "denominator",
                      "display": "Denominator"
                    }
                  ]
                },
                "count": 1
              },
              {
                "code": {
                  "coding": [
                    {
                      "system": "http://terminology.hl7.org/CodeSystem/measure-population",
                      "code": "denominator-exclusion",
                      "display": "Denominator Exclusion"
                    }
                  ]
                },
                "count": 0
              },
              {
                "code": {
                  "coding": [
                    {
                      "system": "http://terminology.hl7.org/CodeSystem/measure-population",
                      "code": "numerator",
                      "display": "Numerator"
                    }
                  ]
                },
                "count": 0
              }
            ]
          }
        ],
        "evaluatedResource": [
          {
            "reference": "Patient/6384c978-83d9-40a0-805c-234bbf130721"
          },
          {
            "reference": "Observation/f8bd18e4-90dd-4e87-aae1-6e779dfe615c"
          },
          {
            "reference": "Observation/9bec15b4-4d83-4b33-9bfb-b04731f9adfc"
          },
          {
            "reference": "Encounter/69537e37-5410-4018-97f5-a6aab7f11fe5"
          },
          {
            "reference": "Procedure/f6e1bfca-bb3d-446c-bb0c-ee47aa0b2f15"
          },
          {
            "reference": "Coverage/c369018b-a5da-4731-bd18-8defae5fc605"
          },
          {
            "reference": "Organization/a5eac956-2122-434c-97ae-e214c5b3504f"
          },
          {
            "reference": "Practitioner/af616c7a-42ab-4b4d-8e93-26beb7034464"
          }
        ]
      },
      "request": {
        "method": "PUT",
        "url": "MeasureReport/2f850d61-542c-4afe-bd73-5aa9822fdfb2"
      }
    }
  ]
}