{
  "resourceType": "Bundle",
  "id": "633b3f9f0968f80122503cdb",
  "type": "transaction",
  "entry": [
    {
      "fullUrl": "https://madie.cms.gov/Patient/f0c8532e-1ac7-46ec-91fe-6ef3180c6122",
      "resource": {
        "resourceType": "Patient",
        "id": "f0c8532e-1ac7-46ec-91fe-6ef3180c6122",
        "meta": {
          "profile": [
            "http://hl7.org/fhir/us/qicore/StructureDefinition/qicore-patient"
          ]
        },
        "text": {
          "status": "generated",
          "div": "<div xmlns=\"http://www.w3.org/1999/xhtml\"><div class=\"hapiHeaderText\">SMMEQBlood Transfusion <b>Strat1Fail </b></div><table class=\"hapiPropertyTable\"><tbody><tr><td>Date of birth</td><td><span>01 February 2004</span></td></tr></tbody></table></div>"
        },
        "extension": [
          {
            "url": "http://hl7.org/fhir/us/core/StructureDefinition/us-core-race",
            "extension": [
              {
                "url": "ombCategory",
                "valueCoding": {
                  "system": "urn:oid:2.16.840.1.113883.6.238",
                  "code": "1002-5",
                  "display": "American Indian or Alaska Native",
                  "userSelected": true
                }
              },
              {
                "url": "text",
                "valueString": "American Indian or Alaska Native"
              }
            ]
          },
          {
            "url": "http://hl7.org/fhir/us/core/StructureDefinition/us-core-ethnicity",
            "extension": [
              {
                "url": "ombCategory",
                "valueCoding": {
                  "system": "urn:oid:2.16.840.1.113883.6.238",
                  "code": "2135-2",
                  "display": "Hispanic or Latino",
                  "userSelected": true
                }
              },
              {
                "url": "text",
                "valueString": "Hispanic or Latino"
              }
            ]
          }
        ],
        "identifier": [
          {
            "type": {
              "coding": [
                {
                  "system": "http://terminology.hl7.org/CodeSystem/v2-0203",
                  "code": "MR"
                }
              ]
            },
            "system": "https://bonnie-fhir.healthit.gov/",
            "value": "633b3f9f0968f80122503cdb"
          }
        ],
        "active": true,
        "name": [
          {
            "use": "usual",
            "family": "STRAT1Fail",
            "given": [
              "SMMEQBlood Transfusion"
            ]
          }
        ],
        "gender": "female",
        "birthDate": "2004-02-01"
      },
      "request": {
        "method": "PUT",
        "url": "Patient/f0c8532e-1ac7-46ec-91fe-6ef3180c6122"
      }
    },
    {
      "fullUrl": "https://madie.cms.gov/Observation/4a830669-578c-4ee6-90f0-4259d50a64f9",
      "resource": {
        "resourceType": "Observation",
        "id": "4a830669-578c-4ee6-90f0-4259d50a64f9",
        "meta": {
          "profile": [
            "http://hl7.org/fhir/us/qicore/StructureDefinition/qicore-observation"
          ]
        },
        "status": "final",
        "category": [
          {
            "coding": [
              {
                "system": "http://terminology.hl7.org/CodeSystem/observation-category",
                "code": "exam",
                "display": "exam",
                "userSelected": true
              }
            ]
          }
        ],
        "code": {
          "coding": [
            {
              "system": "http://loinc.org",
              "code": "93857-1"
            }
          ]
        },
        "subject": {
          "reference": "Patient/f0c8532e-1ac7-46ec-91fe-6ef3180c6122"
        },
        "effectiveDateTime": "2024-02-01T08:00:00.000+00:00",
        "valueDateTime": "2024-02-01T08:00:00+00:00"
      },
      "request": {
        "method": "PUT",
        "url": "Observation/4a830669-578c-4ee6-90f0-4259d50a64f9"
      }
    },
    {
      "fullUrl": "https://madie.cms.gov/Observation/46a2e657-58b9-4a84-991e-2a2199abec06",
      "resource": {
        "resourceType": "Observation",
        "id": "46a2e657-58b9-4a84-991e-2a2199abec06",
        "meta": {
          "profile": [
            "http://hl7.org/fhir/us/qicore/StructureDefinition/qicore-observation"
          ]
        },
        "status": "final",
        "category": [
          {
            "coding": [
              {
                "system": "http://terminology.hl7.org/CodeSystem/observation-category",
                "code": "exam",
                "display": "exam",
                "userSelected": true
              }
            ]
          }
        ],
        "code": {
          "coding": [
            {
              "system": "http://loinc.org",
              "code": "11884-4"
            }
          ]
        },
        "subject": {
          "reference": "Patient/f0c8532e-1ac7-46ec-91fe-6ef3180c6122"
        },
        "effectiveDateTime": "2024-02-01T08:00:00.000+00:00",
        "valueQuantity": {
          "value": 20,
          "system": "http://unitsofmeasure.org",
          "code": "wk"
        }
      },
      "request": {
        "method": "PUT",
        "url": "Observation/46a2e657-58b9-4a84-991e-2a2199abec06"
      }
    },
    {
      "fullUrl": "https://madie.cms.gov/Observation/f8837058-118c-4450-86b5-2d0286555e7a",
      "resource": {
        "resourceType": "Observation",
        "id": "f8837058-118c-4450-86b5-2d0286555e7a",
        "meta": {
          "profile": [
            "http://hl7.org/fhir/us/qicore/StructureDefinition/qicore-observation"
          ]
        },
        "status": "final",
        "category": [
          {
            "coding": [
              {
                "system": "http://terminology.hl7.org/CodeSystem/observation-category",
                "code": "exam",
                "display": "exam",
                "userSelected": true
              }
            ]
          }
        ],
        "code": {
          "coding": [
            {
              "system": "http://loinc.org",
              "code": "11884-4"
            }
          ]
        },
        "subject": {
          "reference": "Patient/f0c8532e-1ac7-46ec-91fe-6ef3180c6122"
        },
        "effectiveDateTime": "2024-02-01T08:01:00.000+00:00"
      },
      "request": {
        "method": "PUT",
        "url": "Observation/f8837058-118c-4450-86b5-2d0286555e7a"
      }
    },
    {
      "fullUrl": "https://madie.cms.gov/Encounter/226a1c41-9f0d-460b-bb4f-1e7a610ed4ac",
      "resource": {
        "resourceType": "Encounter",
        "id": "226a1c41-9f0d-460b-bb4f-1e7a610ed4ac",
        "meta": {
          "profile": [
            "http://hl7.org/fhir/us/qicore/StructureDefinition/qicore-encounter"
          ]
        },
        "status": "finished",
        "class": {
          "system": "http://terminology.hl7.org/CodeSystem/v3-ActCode",
          "code": "IMP",
          "display": "inpatient encounter"
        },
        "type": [
          {
            "coding": [
              {
                "system": "http://snomed.info/sct",
                "code": "183452005"
              }
            ]
          }
        ],
        "subject": {
          "reference": "Patient/f0c8532e-1ac7-46ec-91fe-6ef3180c6122"
        },
        "period": {
          "start": "2024-02-01T08:00:00.000Z",
          "end": "2024-02-05T08:15:00.000Z"
        }
      },
      "request": {
        "method": "PUT",
        "url": "Encounter/226a1c41-9f0d-460b-bb4f-1e7a610ed4ac"
      }
    },
    {
      "fullUrl": "https://madie.cms.gov/Coverage/2f65dce7-8b2e-4756-9ae9-6dce4ddabf82",
      "resource": {
        "resourceType": "Coverage",
        "id": "2f65dce7-8b2e-4756-9ae9-6dce4ddabf82",
        "status": "active",
        "beneficiary": {
          "reference": "Patient/f0c8532e-1ac7-46ec-91fe-6ef3180c6122"
        },
        "period": {
          "start": "2004-02-01T08:00:00.000Z"
        },
        "payor": [
          {
            "reference": "Organization/77f05c83-21de-4355-922f-3180aa808287"
          }
        ]
      },
      "request": {
        "method": "PUT",
        "url": "Coverage/2f65dce7-8b2e-4756-9ae9-6dce4ddabf82"
      }
    },
    {
      "fullUrl": "https://madie.cms.gov/Procedure/af966f47-c3d8-44ef-88ae-9cd621b1aab2",
      "resource": {
        "resourceType": "Procedure",
        "id": "af966f47-c3d8-44ef-88ae-9cd621b1aab2",
        "meta": {
          "profile": [
            "http://hl7.org/fhir/us/qicore/StructureDefinition/qicore-procedure"
          ]
        },
        "extension": [
          {
            "url": "http://hl7.org/fhir/us/qicore/StructureDefinition/qicore-recorded",
            "valueDateTime": "2013-04-05T09:35:00-04:00"
          }
        ],
        "status": "completed",
        "code": {
          "coding": [
            {
              "system": "http://snomed.info/sct",
              "code": "10745001"
            }
          ]
        },
        "subject": {
          "reference": "Patient/f0c8532e-1ac7-46ec-91fe-6ef3180c6122"
        },
        "performedPeriod": {
          "start": "2024-02-01T08:00:00.000Z",
          "end": "2024-02-05T08:15:00.000Z"
        }
      },
      "request": {
        "method": "PUT",
        "url": "Procedure/af966f47-c3d8-44ef-88ae-9cd621b1aab2"
      }
    },
    {
      "fullUrl": "https://madie.cms.gov/Procedure/c3cec995-7d6e-45e6-815c-4b798b53c4ac",
      "resource": {
        "resourceType": "Procedure",
        "id": "c3cec995-7d6e-45e6-815c-4b798b53c4ac",
        "meta": {
          "profile": [
            "http://hl7.org/fhir/us/qicore/StructureDefinition/qicore-procedure"
          ]
        },
        "extension": [
          {
            "url": "http://hl7.org/fhir/us/qicore/StructureDefinition/qicore-recorded",
            "valueDateTime": "2024-02-01T00:01:00-04:00"
          }
        ],
        "status": "completed",
        "code": {
          "coding": [
            {
              "system": "http://snomed.info/sct",
              "code": "11397000"
            }
          ]
        },
        "subject": {
          "reference": "Patient/f0c8532e-1ac7-46ec-91fe-6ef3180c6122"
        },
        "performedPeriod": {
          "start": "2024-02-01T08:00:00.000Z",
          "end": "2024-02-05T08:15:00.000Z"
        }
      },
      "request": {
        "method": "PUT",
        "url": "Procedure/c3cec995-7d6e-45e6-815c-4b798b53c4ac"
      }
    },
    {
      "fullUrl": "https://madie.cms.gov/Organization/77f05c83-21de-4355-922f-3180aa808287",
      "resource": {
        "resourceType": "Organization",
        "id": "77f05c83-21de-4355-922f-3180aa808287",
        "meta": {
          "profile": [
            "http://hl7.org/fhir/us/qicore/StructureDefinition/qicore-organization"
          ]
        },
        "identifier": [
          {
            "use": "temp",
            "system": "urn:oid:2.16.840.1.113883.4.4",
            "value": "21-3259825"
          }
        ],
        "active": true,
        "type": [
          {
            "coding": [
              {
                "system": "http://terminology.hl7.org/CodeSystem/organization-type",
                "code": "pay",
                "display": "Payer"
              }
            ]
          }
        ],
        "name": "Blue Cross Blue Shield of Texas",
        "telecom": [
          {
            "system": "phone",
            "value": "(+1) 972-766-6900"
          }
        ],
        "address": [
          {
            "use": "billing",
            "type": "postal",
            "line": [
              "P.O. Box 660044"
            ],
            "city": "Dallas",
            "state": "TX",
            "postalCode": "75266-0044",
            "country": "USA"
          }
        ]
      },
      "request": {
        "method": "PUT",
        "url": "Organization/77f05c83-21de-4355-922f-3180aa808287"
      }
    },
    {
      "fullUrl": "https://madie.cms.gov/Practitioner/dd55854a-5a05-496b-be9c-f12104b919a2",
      "resource": {
        "resourceType": "Practitioner",
        "id": "dd55854a-5a05-496b-be9c-f12104b919a2",
        "identifier": [
          {
            "system": "http://hl7.org/fhir/sid/us-npi",
            "value": "123456"
          }
        ],
        "name": [
          {
            "family": "Evil",
            "prefix": [
              "Dr"
            ]
          }
        ]
      },
      "request": {
        "method": "PUT",
        "url": "Practitioner/dd55854a-5a05-496b-be9c-f12104b919a2"
      }
    },
    {
      "fullUrl": "https://madie.cms.gov/MeasureReport/d7158722-70d8-4fe6-b140-0608e0983921",
      "resource": {
        "resourceType": "MeasureReport",
        "id": "d7158722-70d8-4fe6-b140-0608e0983921",
        "meta": {
          "profile": [
            "http://hl7.org/fhir/us/cqfmeasures/StructureDefinition/test-case-cqfm"
          ]
        },
        "contained": [
          {
            "resourceType": "Parameters",
            "id": "4414f54b-d839-41b6-802e-cbc37a6e7ece-parameters",
            "parameter": [
              {
                "name": "subject",
                "valueString": "f0c8532e-1ac7-46ec-91fe-6ef3180c6122"
              }
            ]
          }
        ],
        "extension": [
          {
            "url": "http://hl7.org/fhir/us/cqfmeasures/StructureDefinition/cqfm-inputParameters",
            "valueReference": {
              "reference": "#4414f54b-d839-41b6-802e-cbc37a6e7ece-parameters"
            }
          },
          {
            "url": "http://hl7.org/fhir/us/cqfmeasures/StructureDefinition/cqfm-testCaseDescription",
            "valueMarkdown": "Patient had a blood transfusion as SMM.  No other SMM.\n"
          }
        ],
        "modifierExtension": [
          {
            "url": "http://hl7.org/fhir/us/cqfmeasures/StructureDefinition/cqfm-isTestCase",
            "valueBoolean": true
          }
        ],
        "status": "complete",
        "type": "individual",
        "measure": "https://madie.cms.gov/Measure/SevereObstetricComplicationsFHIR",
        "period": {
          "start": "2024-01-01",
          "end": "2024-12-31"
        },
        "group": [
          {
            "population": [
              {
                "code": {
                  "coding": [
                    {
                      "system": "http://terminology.hl7.org/CodeSystem/measure-population",
                      "code": "initial-population",
                      "display": "Initial Population"
                    }
                  ]
                },
                "count": 1
              },
              {
                "code": {
                  "coding": [
                    {
                      "system": "http://terminology.hl7.org/CodeSystem/measure-population",
                      "code": "denominator",
                      "display": "Denominator"
                    }
                  ]
                },
                "count": 1
              },
              {
                "code": {
                  "coding": [
                    {
                      "system": "http://terminology.hl7.org/CodeSystem/measure-population",
                      "code": "denominator-exclusion",
                      "display": "Denominator Exclusion"
                    }
                  ]
                },
                "count": 0
              },
              {
                "code": {
                  "coding": [
                    {
                      "system": "http://terminology.hl7.org/CodeSystem/measure-population",
                      "code": "numerator",
                      "display": "Numerator"
                    }
                  ]
                },
                "count": 1
              }
            ]
          }
        ],
        "evaluatedResource": [
          {
            "reference": "Patient/f0c8532e-1ac7-46ec-91fe-6ef3180c6122"
          },
          {
            "reference": "Observation/4a830669-578c-4ee6-90f0-4259d50a64f9"
          },
          {
            "reference": "Observation/46a2e657-58b9-4a84-991e-2a2199abec06"
          },
          {
            "reference": "Observation/f8837058-118c-4450-86b5-2d0286555e7a"
          },
          {
            "reference": "Encounter/226a1c41-9f0d-460b-bb4f-1e7a610ed4ac"
          },
          {
            "reference": "Coverage/2f65dce7-8b2e-4756-9ae9-6dce4ddabf82"
          },
          {
            "reference": "Procedure/af966f47-c3d8-44ef-88ae-9cd621b1aab2"
          },
          {
            "reference": "Procedure/c3cec995-7d6e-45e6-815c-4b798b53c4ac"
          },
          {
            "reference": "Organization/77f05c83-21de-4355-922f-3180aa808287"
          },
          {
            "reference": "Practitioner/dd55854a-5a05-496b-be9c-f12104b919a2"
          }
        ]
      },
      "request": {
        "method": "PUT",
        "url": "MeasureReport/d7158722-70d8-4fe6-b140-0608e0983921"
      }
    }
  ]
}