{
  "resourceType": "Bundle",
  "id": "6129134f02c62a011f2e7238",
  "type": "transaction",
  "entry": [
    {
      "fullUrl": "https://madie.cms.gov/Patient/0ae17e11-9826-42fc-a01d-f5fadc01176e",
      "resource": {
        "resourceType": "Patient",
        "id": "0ae17e11-9826-42fc-a01d-f5fadc01176e",
        "meta": {
          "profile": [
            "http://hl7.org/fhir/us/qicore/StructureDefinition/qicore-patient"
          ]
        },
        "text": {
          "status": "generated",
          "div": "<div xmlns=\"http://www.w3.org/1999/xhtml\"><div class=\"hapiHeaderText\">CMOdurED_ED&gt;1hrObs&gt;1hrBFEnc <b>DENEXFAIL </b></div><table class=\"hapiPropertyTable\"><tbody><tr><td>Identifier</td><td>e5df08ea2344cb20f6fa2d8f47afc61dfe83551ed3f95587fd02a84cb071d263</td></tr><tr><td>Date of birth</td><td><span>21 August 1994</span></td></tr></tbody></table></div>"
        },
        "extension": [
          {
            "url": "http://hl7.org/fhir/us/core/StructureDefinition/us-core-race",
            "extension": [
              {
                "url": "ombCategory",
                "valueCoding": {
                  "system": "urn:oid:2.16.840.1.113883.6.238",
                  "code": "1002-5",
                  "display": "American Indian or Alaska Native",
                  "userSelected": true
                }
              },
              {
                "url": "detailed",
                "valueCoding": {
                  "system": "urn:oid:2.16.840.1.113883.6.238",
                  "code": "2036-2",
                  "display": "Filipino"
                }
              },
              {
                "url": "text",
                "valueString": "American Indian or Alaska Native"
              }
            ]
          },
          {
            "url": "http://hl7.org/fhir/us/core/StructureDefinition/us-core-ethnicity",
            "extension": [
              {
                "url": "ombCategory",
                "valueCoding": {
                  "system": "urn:oid:2.16.840.1.113883.6.238",
                  "code": "2135-2",
                  "display": "Hispanic or Latino",
                  "userSelected": true
                }
              },
              {
                "url": "text",
                "valueString": "Hispanic or Latino"
              },
              {
                "url": "detailed",
                "valueCoding": {
                  "system": "urn:oid:2.16.840.1.113883.6.238",
                  "code": "2153-5",
                  "display": "Mexican American Indian"
                }
              }
            ]
          }
        ],
        "identifier": [
          {
            "type": {
              "coding": [
                {
                  "system": "http://terminology.hl7.org/CodeSystem/v2-0203",
                  "code": "MR"
                }
              ]
            },
            "system": "https://bonnie-fhir.healthit.gov/",
            "value": "6129134f02c62a011f2e7238"
          }
        ],
        "active": true,
        "name": [
          {
            "use": "usual",
            "family": "DENEXFail",
            "given": [
              "CMOdurED_ED>1hrObs>1hrBFEnc"
            ]
          }
        ],
        "gender": "male",
        "birthDate": "1994-08-21"
      },
      "request": {
        "method": "PUT",
        "url": "Patient/0ae17e11-9826-42fc-a01d-f5fadc01176e"
      }
    },
    {
      "fullUrl": "https://madie.cms.gov/Encounter/2aa09ff0-751d-439a-8483-7f394ca964b5",
      "resource": {
        "resourceType": "Encounter",
        "id": "2aa09ff0-751d-439a-8483-7f394ca964b5",
        "meta": {
          "profile": [
            "http://hl7.org/fhir/us/qicore/StructureDefinition/qicore-encounter"
          ]
        },
        "status": "finished",
        "class": {
          "system": "http://terminology.hl7.org/CodeSystem/v3-ActCode",
          "code": "EMER",
          "display": "emergency",
          "userSelected": true
        },
        "type": [
          {
            "coding": [
              {
                "system": "http://snomed.info/sct",
                "code": "4525004"
              }
            ]
          }
        ],
        "subject": {
          "reference": "Patient/0ae17e11-9826-42fc-a01d-f5fadc01176e"
        },
        "period": {
          "start": "2025-10-10T10:28:00.000+00:00",
          "end": "2025-10-10T10:30:00.000+00:00"
        },
        "length": {
          "value": 0,
          "unit": "days"
        }
      },
      "request": {
        "method": "PUT",
        "url": "Encounter/2aa09ff0-751d-439a-8483-7f394ca964b5"
      }
    },
    {
      "fullUrl": "https://madie.cms.gov/Encounter/b2cada31-8716-466f-a201-7a9ad4874bc8",
      "resource": {
        "resourceType": "Encounter",
        "id": "b2cada31-8716-466f-a201-7a9ad4874bc8",
        "meta": {
          "profile": [
            "http://hl7.org/fhir/us/qicore/StructureDefinition/qicore-encounter"
          ]
        },
        "status": "finished",
        "class": {
          "system": "http://terminology.hl7.org/CodeSystem/v3-ActCode",
          "code": "OBSENC",
          "display": "observation encounter",
          "userSelected": true
        },
        "type": [
          {
            "coding": [
              {
                "system": "http://snomed.info/sct",
                "code": "448851000124103"
              }
            ]
          }
        ],
        "subject": {
          "reference": "Patient/0ae17e11-9826-42fc-a01d-f5fadc01176e"
        },
        "period": {
          "start": "2025-10-10T11:31:00.000+00:00",
          "end": "2025-10-10T11:35:00.000+00:00"
        },
        "length": {
          "value": 0,
          "unit": "days"
        }
      },
      "request": {
        "method": "PUT",
        "url": "Encounter/b2cada31-8716-466f-a201-7a9ad4874bc8"
      }
    },
    {
      "fullUrl": "https://madie.cms.gov/Encounter/60d15843-9cd3-428d-9da9-4a9f42ea6254",
      "resource": {
        "resourceType": "Encounter",
        "id": "60d15843-9cd3-428d-9da9-4a9f42ea6254",
        "meta": {
          "profile": [
            "http://hl7.org/fhir/us/qicore/StructureDefinition/qicore-encounter"
          ]
        },
        "status": "finished",
        "class": {
          "system": "http://terminology.hl7.org/CodeSystem/v3-ActCode",
          "code": "IMP",
          "display": "inpatient encounter",
          "userSelected": true
        },
        "type": [
          {
            "coding": [
              {
                "system": "http://snomed.info/sct",
                "code": "32485007"
              }
            ]
          }
        ],
        "subject": {
          "reference": "Patient/0ae17e11-9826-42fc-a01d-f5fadc01176e"
        },
        "period": {
          "start": "2025-10-10T12:36:00.000+00:00",
          "end": "2025-10-12T11:30:00.000+00:00"
        },
        "length": {
          "value": 2,
          "unit": "days"
        },
        "diagnosis": [
          {
            "condition": {
              "reference": "Condition/cc068ab3-5dd1-4264-be93-ef97d01225c4"
            },
            "use": {
              "coding": [
                {
                  "system": "http://terminology.hl7.org/CodeSystem/diagnosis-role",
                  "code": "billing",
                  "display": "Billing"
                }
              ]
            },
            "rank": 1
          }
        ]
      },
      "request": {
        "method": "PUT",
        "url": "Encounter/60d15843-9cd3-428d-9da9-4a9f42ea6254"
      }
    },
    {
      "fullUrl": "https://madie.cms.gov/ServiceRequest/d0661d83-5e8e-4571-95b9-6bb106442170",
      "resource": {
        "resourceType": "ServiceRequest",
        "id": "d0661d83-5e8e-4571-95b9-6bb106442170",
        "meta": {
          "profile": [
            "http://hl7.org/fhir/us/qicore/StructureDefinition/qicore-servicerequest"
          ]
        },
        "status": "active",
        "intent": "order",
        "code": {
          "coding": [
            {
              "system": "http://snomed.info/sct",
              "code": "133918004"
            }
          ]
        },
        "subject": {
          "reference": "Patient/0ae17e11-9826-42fc-a01d-f5fadc01176e"
        },
        "authoredOn": "2025-10-10T10:30:00.000+00:00"
      },
      "request": {
        "method": "PUT",
        "url": "ServiceRequest/d0661d83-5e8e-4571-95b9-6bb106442170"
      }
    },
    {
      "fullUrl": "https://madie.cms.gov/Condition/cc068ab3-5dd1-4264-be93-ef97d01225c4",
      "resource": {
        "resourceType": "Condition",
        "id": "cc068ab3-5dd1-4264-be93-ef97d01225c4",
        "meta": {
          "profile": [
            "http://hl7.org/fhir/us/qicore/StructureDefinition/qicore-condition"
          ]
        },
        "clinicalStatus": {
          "coding": [
            {
              "system": "http://terminology.hl7.org/CodeSystem/condition-clinical",
              "code": "active"
            }
          ]
        },
        "verificationStatus": {
          "coding": [
            {
              "system": "http://terminology.hl7.org/CodeSystem/condition-ver-status",
              "code": "confirmed"
            }
          ]
        },
        "category": [
          {
            "coding": [
              {
                "system": "http://terminology.hl7.org/CodeSystem/condition-category",
                "code": "encounter-diagnosis",
                "display": "Encounter Diagnosis"
              }
            ]
          }
        ],
        "code": {
          "coding": [
            {
              "system": "http://snomed.info/sct",
              "version": "2020-09",
              "code": "111297002",
              "display": "Nonparalytic stroke (disorder)",
              "userSelected": true
            }
          ]
        },
        "subject": {
          "reference": "Patient/0ae17e11-9826-42fc-a01d-f5fadc01176e"
        },
        "recordedDate": "2025-07-14T08:00:00.000+00:00"
      },
      "request": {
        "method": "PUT",
        "url": "Condition/cc068ab3-5dd1-4264-be93-ef97d01225c4"
      }
    },
    {
      "fullUrl": "https://madie.cms.gov/Coverage/dc698086-88cf-49a3-9100-d015fa11b69c",
      "resource": {
        "resourceType": "Coverage",
        "id": "dc698086-88cf-49a3-9100-d015fa11b69c",
        "meta": {
          "profile": [
            "http://hl7.org/fhir/us/qicore/StructureDefinition/qicore-coverage"
          ]
        },
        "status": "active",
        "beneficiary": {
          "reference": "Patient/0ae17e11-9826-42fc-a01d-f5fadc01176e"
        },
        "payor": [
          {
            "reference": "Organization/cbac717c-ac0f-4170-a2be-8335a6341a6d"
          }
        ]
      },
      "request": {
        "method": "PUT",
        "url": "Coverage/dc698086-88cf-49a3-9100-d015fa11b69c"
      }
    },
    {
      "fullUrl": "https://madie.cms.gov/Organization/cbac717c-ac0f-4170-a2be-8335a6341a6d",
      "resource": {
        "resourceType": "Organization",
        "id": "cbac717c-ac0f-4170-a2be-8335a6341a6d",
        "meta": {
          "profile": [
            "http://hl7.org/fhir/us/qicore/StructureDefinition/qicore-organization"
          ]
        },
        "identifier": [
          {
            "use": "temp",
            "system": "urn:oid:2.16.840.1.113883.4.4",
            "value": "21-3259825"
          }
        ],
        "active": true,
        "type": [
          {
            "coding": [
              {
                "system": "http://terminology.hl7.org/CodeSystem/organization-type",
                "code": "pay",
                "display": "Payer"
              }
            ]
          }
        ],
        "name": "Blue Cross Blue Shield of Texas",
        "telecom": [
          {
            "system": "phone",
            "value": "(+1) 972-766-6900"
          }
        ],
        "address": [
          {
            "use": "billing",
            "type": "postal",
            "line": [
              "P.O. Box 660044"
            ],
            "city": "Dallas",
            "state": "TX",
            "postalCode": "75266-0044",
            "country": "USA"
          }
        ]
      },
      "request": {
        "method": "PUT",
        "url": "Organization/cbac717c-ac0f-4170-a2be-8335a6341a6d"
      }
    },
    {
      "fullUrl": "https://madie.cms.gov/MeasureReport/c0de4216-2017-4355-a399-07085d7e9e4f",
      "resource": {
        "resourceType": "MeasureReport",
        "id": "c0de4216-2017-4355-a399-07085d7e9e4f",
        "meta": {
          "profile": [
            "http://hl7.org/fhir/us/cqfmeasures/StructureDefinition/test-case-cqfm"
          ]
        },
        "contained": [
          {
            "resourceType": "Parameters",
            "id": "5bd4d22b-a332-46a6-af63-c5aafee1fede-parameters",
            "parameter": [
              {
                "name": "subject",
                "valueString": "0ae17e11-9826-42fc-a01d-f5fadc01176e"
              }
            ]
          }
        ],
        "extension": [
          {
            "url": "http://hl7.org/fhir/us/cqfmeasures/StructureDefinition/cqfm-inputParameters",
            "valueReference": {
              "reference": "#5bd4d22b-a332-46a6-af63-c5aafee1fede-parameters"
            }
          },
          {
            "url": "http://hl7.org/fhir/us/cqfmeasures/StructureDefinition/cqfm-testCaseDescription",
            "valueMarkdown": "Patient receives CMO during ED. ED ends 61 minute before Obs. Obs ends 61 min before inpatient encounter start. Testing day of operator with HospitalizationWithObservation function."
          }
        ],
        "modifierExtension": [
          {
            "url": "http://hl7.org/fhir/us/cqfmeasures/StructureDefinition/cqfm-isTestCase",
            "valueBoolean": true
          }
        ],
        "status": "complete",
        "type": "individual",
        "measure": "https://madie.cms.gov/Measure/DischargedonAntithromboticTherapyFHIR",
        "period": {
          "start": "2025-01-01",
          "end": "2025-12-31"
        },
        "group": [
          {
            "population": [
              {
                "code": {
                  "coding": [
                    {
                      "system": "http://terminology.hl7.org/CodeSystem/measure-population",
                      "code": "initial-population",
                      "display": "Initial Population"
                    }
                  ]
                },
                "count": 1
              },
              {
                "code": {
                  "coding": [
                    {
                      "system": "http://terminology.hl7.org/CodeSystem/measure-population",
                      "code": "denominator",
                      "display": "Denominator"
                    }
                  ]
                },
                "count": 1
              },
              {
                "code": {
                  "coding": [
                    {
                      "system": "http://terminology.hl7.org/CodeSystem/measure-population",
                      "code": "denominator-exclusion",
                      "display": "Denominator Exclusion"
                    }
                  ]
                },
                "count": 0
              },
              {
                "code": {
                  "coding": [
                    {
                      "system": "http://terminology.hl7.org/CodeSystem/measure-population",
                      "code": "numerator",
                      "display": "Numerator"
                    }
                  ]
                },
                "count": 0
              },
              {
                "code": {
                  "coding": [
                    {
                      "system": "http://terminology.hl7.org/CodeSystem/measure-population",
                      "code": "denominator-exception",
                      "display": "Denominator Exception"
                    }
                  ]
                },
                "count": 0
              }
            ]
          }
        ],
        "evaluatedResource": [
          {
            "reference": "Patient/0ae17e11-9826-42fc-a01d-f5fadc01176e"
          },
          {
            "reference": "Encounter/2aa09ff0-751d-439a-8483-7f394ca964b5"
          },
          {
            "reference": "Encounter/b2cada31-8716-466f-a201-7a9ad4874bc8"
          },
          {
            "reference": "Encounter/60d15843-9cd3-428d-9da9-4a9f42ea6254"
          },
          {
            "reference": "ServiceRequest/d0661d83-5e8e-4571-95b9-6bb106442170"
          },
          {
            "reference": "Condition/cc068ab3-5dd1-4264-be93-ef97d01225c4"
          },
          {
            "reference": "Coverage/dc698086-88cf-49a3-9100-d015fa11b69c"
          },
          {
            "reference": "Organization/cbac717c-ac0f-4170-a2be-8335a6341a6d"
          }
        ]
      },
      "request": {
        "method": "PUT",
        "url": "MeasureReport/c0de4216-2017-4355-a399-07085d7e9e4f"
      }
    }
  ]
}