{
  "resourceType": "Bundle",
  "id": "63594c7a6aee9629c82981df",
  "type": "transaction",
  "entry": [
    {
      "fullUrl": "https://madie.cms.gov/Patient/3973f58d-36e3-4fe6-9f06-14bbbce0c829",
      "resource": {
        "resourceType": "Patient",
        "id": "3973f58d-36e3-4fe6-9f06-14bbbce0c829",
        "meta": {
          "profile": [
            "http://hl7.org/fhir/us/qicore/StructureDefinition/qicore-patient"
          ]
        },
        "text": {
          "status": "generated",
          "div": "<div xmlns=\"http://www.w3.org/1999/xhtml\"><div class=\"hapiHeaderText\">AssPrfDelRelvDtEQIPEnd <b>RISK_ASTHMA </b></div><table class=\"hapiPropertyTable\"><tbody><tr><td>Date of birth</td><td><span>01 February 2004</span></td></tr></tbody></table></div>"
        },
        "extension": [
          {
            "url": "http://hl7.org/fhir/us/core/StructureDefinition/us-core-race",
            "extension": [
              {
                "url": "ombCategory",
                "valueCoding": {
                  "system": "urn:oid:2.16.840.1.113883.6.238",
                  "code": "1002-5",
                  "display": "American Indian or Alaska Native",
                  "userSelected": true
                }
              },
              {
                "url": "text",
                "valueString": "American Indian or Alaska Native"
              }
            ]
          },
          {
            "url": "http://hl7.org/fhir/us/core/StructureDefinition/us-core-ethnicity",
            "extension": [
              {
                "url": "ombCategory",
                "valueCoding": {
                  "system": "urn:oid:2.16.840.1.113883.6.238",
                  "code": "2135-2",
                  "display": "Hispanic or Latino",
                  "userSelected": true
                }
              },
              {
                "url": "text",
                "valueString": "Hispanic or Latino"
              }
            ]
          }
        ],
        "identifier": [
          {
            "type": {
              "coding": [
                {
                  "system": "http://terminology.hl7.org/CodeSystem/v2-0203",
                  "code": "MR"
                }
              ]
            },
            "system": "https://bonnie-fhir.healthit.gov/",
            "value": "63594c7a6aee9629c82981df"
          }
        ],
        "active": true,
        "name": [
          {
            "use": "usual",
            "family": "RiskPass",
            "given": [
              "Risk_Asthma"
            ]
          }
        ],
        "gender": "female",
        "birthDate": "2004-02-01"
      },
      "request": {
        "method": "PUT",
        "url": "Patient/3973f58d-36e3-4fe6-9f06-14bbbce0c829"
      }
    },
    {
      "fullUrl": "https://madie.cms.gov/Observation/a420905f-9536-4392-9ec6-23c92db52364",
      "resource": {
        "resourceType": "Observation",
        "id": "a420905f-9536-4392-9ec6-23c92db52364",
        "meta": {
          "profile": [
            "http://hl7.org/fhir/us/qicore/StructureDefinition/qicore-observation"
          ]
        },
        "status": "final",
        "category": [
          {
            "coding": [
              {
                "system": "http://terminology.hl7.org/CodeSystem/observation-category",
                "code": "exam",
                "display": "exam",
                "userSelected": true
              }
            ]
          }
        ],
        "code": {
          "coding": [
            {
              "system": "http://loinc.org",
              "code": "93857-1"
            }
          ]
        },
        "subject": {
          "reference": "Patient/3973f58d-36e3-4fe6-9f06-14bbbce0c829"
        },
        "effectiveDateTime": "2024-02-01T08:00:00.000+00:00",
        "valueDateTime": "2024-02-01T08:00:00+00:00"
      },
      "request": {
        "method": "PUT",
        "url": "Observation/a420905f-9536-4392-9ec6-23c92db52364"
      }
    },
    {
      "fullUrl": "https://madie.cms.gov/Observation/029585c1-c72a-4246-a52f-956e124715e2",
      "resource": {
        "resourceType": "Observation",
        "id": "029585c1-c72a-4246-a52f-956e124715e2",
        "meta": {
          "profile": [
            "http://hl7.org/fhir/us/qicore/StructureDefinition/qicore-observation"
          ]
        },
        "status": "final",
        "category": [
          {
            "coding": [
              {
                "system": "http://terminology.hl7.org/CodeSystem/observation-category",
                "code": "exam",
                "display": "exam",
                "userSelected": true
              }
            ]
          }
        ],
        "code": {
          "coding": [
            {
              "system": "http://loinc.org",
              "code": "11778-8"
            }
          ]
        },
        "subject": {
          "reference": "Patient/3973f58d-36e3-4fe6-9f06-14bbbce0c829"
        },
        "effectiveDateTime": "2024-02-01T08:00:00.000+00:00",
        "valueDateTime": "2024-02-01T00:00:00.000+00:00"
      },
      "request": {
        "method": "PUT",
        "url": "Observation/029585c1-c72a-4246-a52f-956e124715e2"
      }
    },
    {
      "fullUrl": "https://madie.cms.gov/Encounter/b9532f13-ce6c-453a-a601-cbb87d0e0225",
      "resource": {
        "resourceType": "Encounter",
        "id": "b9532f13-ce6c-453a-a601-cbb87d0e0225",
        "meta": {
          "profile": [
            "http://hl7.org/fhir/us/qicore/StructureDefinition/qicore-encounter"
          ]
        },
        "status": "finished",
        "class": {
          "system": "http://terminology.hl7.org/CodeSystem/v3-ActCode",
          "code": "IMP",
          "display": "inpatient encounter"
        },
        "type": [
          {
            "coding": [
              {
                "system": "http://snomed.info/sct",
                "code": "183452005"
              }
            ]
          }
        ],
        "subject": {
          "reference": "Patient/3973f58d-36e3-4fe6-9f06-14bbbce0c829"
        },
        "period": {
          "start": "2024-02-01T08:00:00.000Z",
          "end": "2024-02-05T08:15:00.000Z"
        },
        "diagnosis": [
          {
            "extension": [
              {
                "url": "http://hl7.org/fhir/us/qicore/StructureDefinition/qicore-encounter-diagnosisPresentOnAdmission",
                "valueCodeableConcept": {
                  "coding": [
                    {
                      "system": "https://www.cms.gov/Medicare/Medicare-Fee-for-Service-Payment/HospitalAcqCond/Coding",
                      "code": "Y"
                    }
                  ]
                }
              }
            ],
            "condition": {
              "reference": "Condition/04362aa0-b539-43f3-89cc-726280d2fc60"
            }
          },
          {
            "extension": [
              {
                "url": "http://hl7.org/fhir/us/qicore/StructureDefinition/qicore-encounter-diagnosisPresentOnAdmission",
                "valueCodeableConcept": {
                  "coding": [
                    {
                      "system": "https://www.cms.gov/Medicare/Medicare-Fee-for-Service-Payment/HospitalAcqCond/Coding",
                      "code": "N"
                    }
                  ]
                }
              }
            ],
            "condition": {
              "reference": "Condition/3be4b26c-39d9-442d-bc88-17f36e154873"
            }
          }
        ]
      },
      "request": {
        "method": "PUT",
        "url": "Encounter/b9532f13-ce6c-453a-a601-cbb87d0e0225"
      }
    },
    {
      "fullUrl": "https://madie.cms.gov/Procedure/2c195b93-0a35-41ec-adec-ee2402c6be99",
      "resource": {
        "resourceType": "Procedure",
        "id": "2c195b93-0a35-41ec-adec-ee2402c6be99",
        "meta": {
          "profile": [
            "http://hl7.org/fhir/us/qicore/StructureDefinition/qicore-procedure"
          ]
        },
        "extension": [
          {
            "url": "http://hl7.org/fhir/us/qicore/StructureDefinition/qicore-recorded",
            "valueDateTime": "2013-04-05T09:35:00-04:00"
          }
        ],
        "status": "completed",
        "code": {
          "coding": [
            {
              "system": "http://snomed.info/sct",
              "code": "10745001"
            }
          ]
        },
        "subject": {
          "reference": "Patient/3973f58d-36e3-4fe6-9f06-14bbbce0c829"
        },
        "performedDateTime": "2024-02-01T08:00:00.000+00:00"
      },
      "request": {
        "method": "PUT",
        "url": "Procedure/2c195b93-0a35-41ec-adec-ee2402c6be99"
      }
    },
    {
      "fullUrl": "https://madie.cms.gov/Condition/3be4b26c-39d9-442d-bc88-17f36e154873",
      "resource": {
        "resourceType": "Condition",
        "id": "3be4b26c-39d9-442d-bc88-17f36e154873",
        "meta": {
          "profile": [
            "http://hl7.org/fhir/us/qicore/StructureDefinition/qicore-condition"
          ]
        },
        "category": [
          {
            "coding": [
              {
                "system": "http://terminology.hl7.org/CodeSystem/condition-category",
                "code": "encounter-diagnosis",
                "display": "Encounter Diagnosis"
              }
            ]
          }
        ],
        "code": {
          "coding": [
            {
              "system": "http://hl7.org/fhir/sid/icd-10-cm",
              "version": "2023",
              "code": "A32.7",
              "display": "Listerial sepsis",
              "userSelected": true
            }
          ]
        },
        "subject": {
          "reference": "Patient/3973f58d-36e3-4fe6-9f06-14bbbce0c829"
        },
        "recordedDate": "2024-10-26T08:00:00.000+00:00"
      },
      "request": {
        "method": "PUT",
        "url": "Condition/3be4b26c-39d9-442d-bc88-17f36e154873"
      }
    },
    {
      "fullUrl": "https://madie.cms.gov/Condition/04362aa0-b539-43f3-89cc-726280d2fc60",
      "resource": {
        "resourceType": "Condition",
        "id": "04362aa0-b539-43f3-89cc-726280d2fc60",
        "meta": {
          "profile": [
            "http://hl7.org/fhir/us/qicore/StructureDefinition/qicore-condition"
          ]
        },
        "category": [
          {
            "coding": [
              {
                "system": "http://terminology.hl7.org/CodeSystem/condition-category",
                "code": "encounter-diagnosis",
                "display": "Encounter Diagnosis"
              }
            ]
          }
        ],
        "code": {
          "coding": [
            {
              "system": "http://hl7.org/fhir/sid/icd-10-cm",
              "version": "2023",
              "code": "J45.21",
              "display": "Asthma",
              "userSelected": true
            }
          ]
        },
        "subject": {
          "reference": "Patient/3973f58d-36e3-4fe6-9f06-14bbbce0c829"
        },
        "recordedDate": "2024-10-26T08:00:00.000+00:00"
      },
      "request": {
        "method": "PUT",
        "url": "Condition/04362aa0-b539-43f3-89cc-726280d2fc60"
      }
    },
    {
      "fullUrl": "https://madie.cms.gov/MeasureReport/78577b8b-7836-43f8-b09d-b56afdfa8fb0",
      "resource": {
        "resourceType": "MeasureReport",
        "id": "78577b8b-7836-43f8-b09d-b56afdfa8fb0",
        "meta": {
          "profile": [
            "http://hl7.org/fhir/us/cqfmeasures/StructureDefinition/test-case-cqfm"
          ]
        },
        "contained": [
          {
            "resourceType": "Parameters",
            "id": "4da573c0-0722-4c48-8782-1c3d9f194d2e-parameters",
            "parameter": [
              {
                "name": "subject",
                "valueString": "3973f58d-36e3-4fe6-9f06-14bbbce0c829"
              }
            ]
          }
        ],
        "extension": [
          {
            "url": "http://hl7.org/fhir/us/cqfmeasures/StructureDefinition/cqfm-inputParameters",
            "valueReference": {
              "reference": "#4da573c0-0722-4c48-8782-1c3d9f194d2e-parameters"
            }
          },
          {
            "url": "http://hl7.org/fhir/us/cqfmeasures/StructureDefinition/cqfm-testCaseDescription",
            "valueMarkdown": "Risk variable of asthma.\n"
          }
        ],
        "modifierExtension": [
          {
            "url": "http://hl7.org/fhir/us/cqfmeasures/StructureDefinition/cqfm-isTestCase",
            "valueBoolean": true
          }
        ],
        "status": "complete",
        "type": "individual",
        "measure": "https://madie.cms.gov/Measure/SevereObstetricComplicationsFHIR",
        "period": {
          "start": "2024-01-01",
          "end": "2024-12-31"
        },
        "group": [
          {
            "population": [
              {
                "code": {
                  "coding": [
                    {
                      "system": "http://terminology.hl7.org/CodeSystem/measure-population",
                      "code": "initial-population",
                      "display": "Initial Population"
                    }
                  ]
                },
                "count": 1
              },
              {
                "code": {
                  "coding": [
                    {
                      "system": "http://terminology.hl7.org/CodeSystem/measure-population",
                      "code": "denominator",
                      "display": "Denominator"
                    }
                  ]
                },
                "count": 1
              },
              {
                "code": {
                  "coding": [
                    {
                      "system": "http://terminology.hl7.org/CodeSystem/measure-population",
                      "code": "denominator-exclusion",
                      "display": "Denominator Exclusion"
                    }
                  ]
                },
                "count": 0
              },
              {
                "code": {
                  "coding": [
                    {
                      "system": "http://terminology.hl7.org/CodeSystem/measure-population",
                      "code": "numerator",
                      "display": "Numerator"
                    }
                  ]
                },
                "count": 1
              }
            ]
          }
        ],
        "evaluatedResource": [
          {
            "reference": "Patient/3973f58d-36e3-4fe6-9f06-14bbbce0c829"
          },
          {
            "reference": "Observation/a420905f-9536-4392-9ec6-23c92db52364"
          },
          {
            "reference": "Observation/029585c1-c72a-4246-a52f-956e124715e2"
          },
          {
            "reference": "Encounter/b9532f13-ce6c-453a-a601-cbb87d0e0225"
          },
          {
            "reference": "Procedure/2c195b93-0a35-41ec-adec-ee2402c6be99"
          },
          {
            "reference": "Condition/3be4b26c-39d9-442d-bc88-17f36e154873"
          },
          {
            "reference": "Condition/04362aa0-b539-43f3-89cc-726280d2fc60"
          }
        ]
      },
      "request": {
        "method": "PUT",
        "url": "MeasureReport/78577b8b-7836-43f8-b09d-b56afdfa8fb0"
      }
    }
  ]
}