{
  "resourceType": "Bundle",
  "id": "6129134d02c62a011f2e7130",
  "type": "transaction",
  "entry": [
    {
      "fullUrl": "https://madie.cms.gov/Patient/32d29d07-c2ee-40cf-b0ca-d67858a6d89d",
      "resource": {
        "resourceType": "Patient",
        "id": "32d29d07-c2ee-40cf-b0ca-d67858a6d89d",
        "meta": {
          "profile": [
            "http://hl7.org/fhir/us/qicore/StructureDefinition/qicore-patient"
          ]
        },
        "text": {
          "status": "generated",
          "div": "<div xmlns=\"http://www.w3.org/1999/xhtml\"><div class=\"hapiHeaderText\">CMOdurED_ED&lt;1hrObs&lt;1hrBFEnc <b>DENEXPASS </b></div><table class=\"hapiPropertyTable\"><tbody><tr><td>Identifier</td><td>9f33229f87c10a35f78ce016aca297879ccda928800ebb32cb3005131188e0c3</td></tr><tr><td>Date of birth</td><td><span>21 August 1994</span></td></tr></tbody></table></div>"
        },
        "extension": [
          {
            "url": "http://hl7.org/fhir/us/core/StructureDefinition/us-core-race",
            "extension": [
              {
                "url": "ombCategory",
                "valueCoding": {
                  "system": "urn:oid:2.16.840.1.113883.6.238",
                  "code": "1002-5",
                  "display": "American Indian or Alaska Native",
                  "userSelected": true
                }
              },
              {
                "url": "text",
                "valueString": "American Indian or Alaska Native"
              }
            ]
          },
          {
            "url": "http://hl7.org/fhir/us/core/StructureDefinition/us-core-ethnicity",
            "extension": [
              {
                "url": "ombCategory",
                "valueCoding": {
                  "system": "urn:oid:2.16.840.1.113883.6.238",
                  "code": "2135-2",
                  "display": "Hispanic or Latino",
                  "userSelected": true
                }
              },
              {
                "url": "text",
                "valueString": "Hispanic or Latino"
              }
            ]
          }
        ],
        "identifier": [
          {
            "type": {
              "coding": [
                {
                  "system": "http://terminology.hl7.org/CodeSystem/v2-0203",
                  "code": "MR"
                }
              ]
            },
            "system": "https://bonnie-fhir.healthit.gov/",
            "value": "6129134d02c62a011f2e7130"
          }
        ],
        "active": true,
        "name": [
          {
            "use": "usual",
            "family": "DENEXPass",
            "given": [
              "CMOdurED_ED<1hrObs<1hrBFEnc"
            ]
          }
        ],
        "gender": "male",
        "birthDate": "1994-08-21"
      },
      "request": {
        "method": "PUT",
        "url": "Patient/32d29d07-c2ee-40cf-b0ca-d67858a6d89d"
      }
    },
    {
      "fullUrl": "https://madie.cms.gov/Encounter/d3a219a5-52df-42c1-b88a-04fdd1e2a64a",
      "resource": {
        "resourceType": "Encounter",
        "id": "d3a219a5-52df-42c1-b88a-04fdd1e2a64a",
        "meta": {
          "profile": [
            "http://hl7.org/fhir/us/qicore/StructureDefinition/qicore-encounter"
          ]
        },
        "status": "finished",
        "class": {
          "system": "http://terminology.hl7.org/CodeSystem/v3-ActCode",
          "code": "EMER",
          "display": "emergency",
          "userSelected": true
        },
        "type": [
          {
            "coding": [
              {
                "system": "http://snomed.info/sct",
                "code": "4525004"
              }
            ]
          }
        ],
        "subject": {
          "reference": "Patient/32d29d07-c2ee-40cf-b0ca-d67858a6d89d"
        },
        "period": {
          "start": "2025-10-10T09:30:00.000+00:00",
          "end": "2025-10-10T10:30:00.000+00:00"
        },
        "length": {
          "value": 0,
          "unit": "days"
        }
      },
      "request": {
        "method": "PUT",
        "url": "Encounter/d3a219a5-52df-42c1-b88a-04fdd1e2a64a"
      }
    },
    {
      "fullUrl": "https://madie.cms.gov/Encounter/7f0034ed-2666-45f3-9a20-b38d60be70e7",
      "resource": {
        "resourceType": "Encounter",
        "id": "7f0034ed-2666-45f3-9a20-b38d60be70e7",
        "meta": {
          "profile": [
            "http://hl7.org/fhir/us/qicore/StructureDefinition/qicore-encounter"
          ]
        },
        "status": "finished",
        "class": {
          "system": "http://terminology.hl7.org/CodeSystem/v3-ActCode",
          "code": "OBSENC",
          "display": "observation encounter",
          "userSelected": true
        },
        "type": [
          {
            "coding": [
              {
                "system": "http://snomed.info/sct",
                "code": "448851000124103"
              }
            ]
          }
        ],
        "subject": {
          "reference": "Patient/32d29d07-c2ee-40cf-b0ca-d67858a6d89d"
        },
        "period": {
          "start": "2025-10-10T10:31:00.000+00:00",
          "end": "2025-10-10T10:35:00.000+00:00"
        },
        "length": {
          "value": 0,
          "unit": "days"
        }
      },
      "request": {
        "method": "PUT",
        "url": "Encounter/7f0034ed-2666-45f3-9a20-b38d60be70e7"
      }
    },
    {
      "fullUrl": "https://madie.cms.gov/Encounter/e16a0805-3459-40b0-b53f-413e91e27daa",
      "resource": {
        "resourceType": "Encounter",
        "id": "e16a0805-3459-40b0-b53f-413e91e27daa",
        "meta": {
          "profile": [
            "http://hl7.org/fhir/us/qicore/StructureDefinition/qicore-encounter"
          ]
        },
        "status": "finished",
        "class": {
          "system": "http://terminology.hl7.org/CodeSystem/v3-ActCode",
          "code": "IMP",
          "display": "inpatient encounter",
          "userSelected": true
        },
        "type": [
          {
            "coding": [
              {
                "system": "http://snomed.info/sct",
                "code": "32485007"
              }
            ]
          }
        ],
        "subject": {
          "reference": "Patient/32d29d07-c2ee-40cf-b0ca-d67858a6d89d"
        },
        "period": {
          "start": "2025-10-10T11:36:00.000+00:00",
          "end": "2025-10-12T11:30:00.000+00:00"
        },
        "length": {
          "value": 2,
          "unit": "days"
        },
        "diagnosis": [
          {
            "condition": {
              "reference": "Condition/15c6cc18-8d65-4063-a965-a085e2e8fabc"
            },
            "use": {
              "coding": [
                {
                  "system": "http://terminology.hl7.org/CodeSystem/diagnosis-role",
                  "code": "billing",
                  "display": "Billing"
                }
              ]
            },
            "rank": 1
          }
        ]
      },
      "request": {
        "method": "PUT",
        "url": "Encounter/e16a0805-3459-40b0-b53f-413e91e27daa"
      }
    },
    {
      "fullUrl": "https://madie.cms.gov/ServiceRequest/5c33e0bb-c3e9-4838-b04f-44d0daad5478",
      "resource": {
        "resourceType": "ServiceRequest",
        "id": "5c33e0bb-c3e9-4838-b04f-44d0daad5478",
        "meta": {
          "profile": [
            "http://hl7.org/fhir/us/qicore/StructureDefinition/qicore-servicerequest"
          ]
        },
        "status": "active",
        "intent": "order",
        "code": {
          "coding": [
            {
              "system": "http://snomed.info/sct",
              "code": "133918004"
            }
          ]
        },
        "subject": {
          "reference": "Patient/32d29d07-c2ee-40cf-b0ca-d67858a6d89d"
        },
        "authoredOn": "2025-10-10T09:30:00.000+00:00"
      },
      "request": {
        "method": "PUT",
        "url": "ServiceRequest/5c33e0bb-c3e9-4838-b04f-44d0daad5478"
      }
    },
    {
      "fullUrl": "https://madie.cms.gov/Condition/15c6cc18-8d65-4063-a965-a085e2e8fabc",
      "resource": {
        "resourceType": "Condition",
        "id": "15c6cc18-8d65-4063-a965-a085e2e8fabc",
        "meta": {
          "profile": [
            "http://hl7.org/fhir/us/qicore/StructureDefinition/qicore-condition"
          ]
        },
        "clinicalStatus": {
          "coding": [
            {
              "system": "http://terminology.hl7.org/CodeSystem/condition-clinical",
              "code": "active"
            }
          ]
        },
        "verificationStatus": {
          "coding": [
            {
              "system": "http://terminology.hl7.org/CodeSystem/condition-ver-status",
              "code": "confirmed"
            }
          ]
        },
        "category": [
          {
            "coding": [
              {
                "system": "http://terminology.hl7.org/CodeSystem/condition-category",
                "code": "encounter-diagnosis",
                "display": "Encounter Diagnosis"
              }
            ]
          }
        ],
        "code": {
          "coding": [
            {
              "system": "http://snomed.info/sct",
              "version": "2020-09",
              "code": "111297002",
              "display": "Nonparalytic stroke (disorder)",
              "userSelected": true
            }
          ]
        },
        "subject": {
          "reference": "Patient/32d29d07-c2ee-40cf-b0ca-d67858a6d89d"
        },
        "recordedDate": "2025-07-14T08:00:00.000+00:00"
      },
      "request": {
        "method": "PUT",
        "url": "Condition/15c6cc18-8d65-4063-a965-a085e2e8fabc"
      }
    },
    {
      "fullUrl": "https://madie.cms.gov/Coverage/12593266-5b05-4d9b-a59a-7c19601a02a0",
      "resource": {
        "resourceType": "Coverage",
        "id": "12593266-5b05-4d9b-a59a-7c19601a02a0",
        "meta": {
          "profile": [
            "http://hl7.org/fhir/us/qicore/StructureDefinition/qicore-coverage"
          ]
        },
        "status": "active",
        "beneficiary": {
          "reference": "Patient/32d29d07-c2ee-40cf-b0ca-d67858a6d89d"
        },
        "payor": [
          {
            "reference": "Organization/d02931bf-7e45-4539-b17f-68f21c290010"
          }
        ]
      },
      "request": {
        "method": "PUT",
        "url": "Coverage/12593266-5b05-4d9b-a59a-7c19601a02a0"
      }
    },
    {
      "fullUrl": "https://madie.cms.gov/Organization/d02931bf-7e45-4539-b17f-68f21c290010",
      "resource": {
        "resourceType": "Organization",
        "id": "d02931bf-7e45-4539-b17f-68f21c290010",
        "meta": {
          "profile": [
            "http://hl7.org/fhir/us/qicore/StructureDefinition/qicore-organization"
          ]
        },
        "identifier": [
          {
            "use": "temp",
            "system": "urn:oid:2.16.840.1.113883.4.4",
            "value": "21-3259825"
          }
        ],
        "active": true,
        "type": [
          {
            "coding": [
              {
                "system": "http://terminology.hl7.org/CodeSystem/organization-type",
                "code": "pay",
                "display": "Payer"
              }
            ]
          }
        ],
        "name": "Blue Cross Blue Shield of Texas",
        "telecom": [
          {
            "system": "phone",
            "value": "(+1) 972-766-6900"
          }
        ],
        "address": [
          {
            "use": "billing",
            "type": "postal",
            "line": [
              "P.O. Box 660044"
            ],
            "city": "Dallas",
            "state": "TX",
            "postalCode": "75266-0044",
            "country": "USA"
          }
        ]
      },
      "request": {
        "method": "PUT",
        "url": "Organization/d02931bf-7e45-4539-b17f-68f21c290010"
      }
    },
    {
      "fullUrl": "https://madie.cms.gov/MeasureReport/4f215490-a63d-40ad-9b4c-b2903fe0cb11",
      "resource": {
        "resourceType": "MeasureReport",
        "id": "4f215490-a63d-40ad-9b4c-b2903fe0cb11",
        "meta": {
          "profile": [
            "http://hl7.org/fhir/us/cqfmeasures/StructureDefinition/test-case-cqfm"
          ]
        },
        "contained": [
          {
            "resourceType": "Parameters",
            "id": "b9f690e6-6d38-49dc-9bc1-1a25acb57f2c-parameters",
            "parameter": [
              {
                "name": "subject",
                "valueString": "32d29d07-c2ee-40cf-b0ca-d67858a6d89d"
              }
            ]
          }
        ],
        "extension": [
          {
            "url": "http://hl7.org/fhir/us/cqfmeasures/StructureDefinition/cqfm-inputParameters",
            "valueReference": {
              "reference": "#b9f690e6-6d38-49dc-9bc1-1a25acb57f2c-parameters"
            }
          },
          {
            "url": "http://hl7.org/fhir/us/cqfmeasures/StructureDefinition/cqfm-testCaseDescription",
            "valueMarkdown": "Patient receives CMO during ED. ED ends 1 minute before Obs. Obs ends 61 min before inpatient encounter start.  Testing day of operator with HospitalizationWithObservation function."
          }
        ],
        "modifierExtension": [
          {
            "url": "http://hl7.org/fhir/us/cqfmeasures/StructureDefinition/cqfm-isTestCase",
            "valueBoolean": true
          }
        ],
        "status": "complete",
        "type": "individual",
        "measure": "https://madie.cms.gov/Measure/DischargedonAntithromboticTherapyFHIR",
        "period": {
          "start": "2025-01-01",
          "end": "2025-12-31"
        },
        "group": [
          {
            "population": [
              {
                "code": {
                  "coding": [
                    {
                      "system": "http://terminology.hl7.org/CodeSystem/measure-population",
                      "code": "initial-population",
                      "display": "Initial Population"
                    }
                  ]
                },
                "count": 1
              },
              {
                "code": {
                  "coding": [
                    {
                      "system": "http://terminology.hl7.org/CodeSystem/measure-population",
                      "code": "denominator",
                      "display": "Denominator"
                    }
                  ]
                },
                "count": 1
              },
              {
                "code": {
                  "coding": [
                    {
                      "system": "http://terminology.hl7.org/CodeSystem/measure-population",
                      "code": "denominator-exclusion",
                      "display": "Denominator Exclusion"
                    }
                  ]
                },
                "count": 0
              },
              {
                "code": {
                  "coding": [
                    {
                      "system": "http://terminology.hl7.org/CodeSystem/measure-population",
                      "code": "numerator",
                      "display": "Numerator"
                    }
                  ]
                },
                "count": 0
              },
              {
                "code": {
                  "coding": [
                    {
                      "system": "http://terminology.hl7.org/CodeSystem/measure-population",
                      "code": "denominator-exception",
                      "display": "Denominator Exception"
                    }
                  ]
                },
                "count": 0
              }
            ]
          }
        ],
        "evaluatedResource": [
          {
            "reference": "Patient/32d29d07-c2ee-40cf-b0ca-d67858a6d89d"
          },
          {
            "reference": "Encounter/d3a219a5-52df-42c1-b88a-04fdd1e2a64a"
          },
          {
            "reference": "Encounter/7f0034ed-2666-45f3-9a20-b38d60be70e7"
          },
          {
            "reference": "Encounter/e16a0805-3459-40b0-b53f-413e91e27daa"
          },
          {
            "reference": "ServiceRequest/5c33e0bb-c3e9-4838-b04f-44d0daad5478"
          },
          {
            "reference": "Condition/15c6cc18-8d65-4063-a965-a085e2e8fabc"
          },
          {
            "reference": "Coverage/12593266-5b05-4d9b-a59a-7c19601a02a0"
          },
          {
            "reference": "Organization/d02931bf-7e45-4539-b17f-68f21c290010"
          }
        ]
      },
      "request": {
        "method": "PUT",
        "url": "MeasureReport/4f215490-a63d-40ad-9b4c-b2903fe0cb11"
      }
    }
  ]
}