{
  "resourceType": "Bundle",
  "id": "635307b6224f3b053967124e",
  "type": "transaction",
  "entry": [
    {
      "fullUrl": "https://madie.cms.gov/Patient/d775e2a2-58e2-42e5-95c3-371da81963e3",
      "resource": {
        "resourceType": "Patient",
        "id": "d775e2a2-58e2-42e5-95c3-371da81963e3",
        "meta": {
          "profile": [
            "http://hl7.org/fhir/us/qicore/StructureDefinition/qicore-patient"
          ]
        },
        "extension": [
          {
            "url": "http://hl7.org/fhir/us/core/StructureDefinition/us-core-race",
            "extension": [
              {
                "url": "ombCategory",
                "valueCoding": {
                  "system": "urn:oid:2.16.840.1.113883.6.238",
                  "code": "1002-5",
                  "display": "American Indian or Alaska Native",
                  "userSelected": true
                }
              },
              {
                "url": "text",
                "valueString": "American Indian or Alaska Native"
              }
            ]
          },
          {
            "url": "http://hl7.org/fhir/us/core/StructureDefinition/us-core-ethnicity",
            "extension": [
              {
                "url": "ombCategory",
                "valueCoding": {
                  "system": "urn:oid:2.16.840.1.113883.6.238",
                  "code": "2135-2",
                  "display": "Hispanic or Latino",
                  "userSelected": true
                }
              },
              {
                "url": "text",
                "valueString": "Hispanic or Latino"
              }
            ]
          }
        ],
        "identifier": [
          {
            "type": {
              "coding": [
                {
                  "system": "http://terminology.hl7.org/CodeSystem/v2-0203",
                  "code": "MR"
                }
              ]
            },
            "system": "https://bonnie-fhir.healthit.gov/",
            "value": "635307b6224f3b053967124e"
          }
        ],
        "name": [
          {
            "family": "DENOMPass",
            "given": [
              "LastAssPrfEDDRelvTm1MinShortOf42WksB4DELRsltDtTime "
            ]
          }
        ],
        "gender": "female",
        "birthDate": "2000-02-01"
      },
      "request": {
        "method": "PUT",
        "url": "Patient/d775e2a2-58e2-42e5-95c3-371da81963e3"
      }
    },
    {
      "fullUrl": "https://madie.cms.gov/Encounter/d28e14d4-fc73-4949-9b6e-16d17ea69dae",
      "resource": {
        "resourceType": "Encounter",
        "id": "d28e14d4-fc73-4949-9b6e-16d17ea69dae",
        "meta": {
          "profile": [
            "http://hl7.org/fhir/us/qicore/StructureDefinition/qicore-encounter"
          ]
        },
        "status": "finished",
        "class": {
          "system": "http://terminology.hl7.org/CodeSystem/v3-ActCode",
          "code": "IMP",
          "display": "inpatient encounter"
        },
        "type": [
          {
            "coding": [
              {
                "system": "http://snomed.info/sct",
                "version": "2022-09",
                "code": "183452005",
                "display": "Emergency hospital admission (procedure)",
                "userSelected": true
              }
            ]
          }
        ],
        "subject": {
          "reference": "Patient/d775e2a2-58e2-42e5-95c3-371da81963e3"
        },
        "period": {
          "start": "2024-01-30T08:00:00.000+00:00",
          "end": "2024-02-05T08:15:00.000+00:00"
        }
      },
      "request": {
        "method": "PUT",
        "url": "Encounter/d28e14d4-fc73-4949-9b6e-16d17ea69dae"
      }
    },
    {
      "fullUrl": "https://madie.cms.gov/Procedure/0ab3da2f-f513-475a-8176-82aba980dbc0",
      "resource": {
        "resourceType": "Procedure",
        "id": "0ab3da2f-f513-475a-8176-82aba980dbc0",
        "meta": {
          "profile": [
            "http://hl7.org/fhir/us/qicore/StructureDefinition/qicore-procedure"
          ]
        },
        "extension": [
          {
            "url": "http://hl7.org/fhir/us/qicore/StructureDefinition/qicore-recorded",
            "valueDateTime": "2013-04-05T09:35:00-04:00"
          }
        ],
        "status": "completed",
        "code": {
          "coding": [
            {
              "system": "http://snomed.info/sct",
              "version": "2022-09",
              "code": "10745001",
              "display": "Delivery of transverse presentation (procedure)",
              "userSelected": true
            }
          ]
        },
        "subject": {
          "reference": "Patient/d775e2a2-58e2-42e5-95c3-371da81963e3"
        },
        "performedPeriod": {
          "start": "2024-02-01T08:00:00.000+00:00",
          "end": "2024-02-05T08:15:00.000+00:00"
        }
      },
      "request": {
        "method": "PUT",
        "url": "Procedure/0ab3da2f-f513-475a-8176-82aba980dbc0"
      }
    },
    {
      "fullUrl": "https://madie.cms.gov/Observation/5b74240d-2247-452d-b4ad-0647815b1797",
      "resource": {
        "resourceType": "Observation",
        "id": "5b74240d-2247-452d-b4ad-0647815b1797",
        "meta": {
          "profile": [
            "http://hl7.org/fhir/us/qicore/StructureDefinition/qicore-observation"
          ]
        },
        "status": "final",
        "category": [
          {
            "coding": [
              {
                "system": "http://terminology.hl7.org/CodeSystem/observation-category",
                "code": "exam",
                "display": "exam",
                "userSelected": true
              }
            ]
          }
        ],
        "code": {
          "coding": [
            {
              "system": "http://loinc.org",
              "code": "93857-1",
              "display": "Date and time of obstetric delivery",
              "userSelected": true
            }
          ]
        },
        "subject": {
          "reference": "Patient/d775e2a2-58e2-42e5-95c3-371da81963e3"
        },
        "effectiveDateTime": "2024-02-01T08:00:00.000+00:00",
        "valueDateTime": "2024-02-01T08:00:00.000+00:00"
      },
      "request": {
        "method": "PUT",
        "url": "Observation/5b74240d-2247-452d-b4ad-0647815b1797"
      }
    },
    {
      "fullUrl": "https://madie.cms.gov/Observation/b7664584-f685-41fa-9095-ce9bc339b6d8",
      "resource": {
        "resourceType": "Observation",
        "id": "b7664584-f685-41fa-9095-ce9bc339b6d8",
        "meta": {
          "profile": [
            "http://hl7.org/fhir/us/qicore/StructureDefinition/qicore-observation"
          ]
        },
        "status": "final",
        "category": [
          {
            "coding": [
              {
                "system": "http://terminology.hl7.org/CodeSystem/observation-category",
                "code": "exam",
                "display": "exam",
                "userSelected": true
              }
            ]
          }
        ],
        "code": {
          "coding": [
            {
              "system": "http://loinc.org",
              "code": "11778-8",
              "display": "Delivery date Estimated",
              "userSelected": true
            }
          ]
        },
        "subject": {
          "reference": "Patient/d775e2a2-58e2-42e5-95c3-371da81963e3"
        },
        "effectiveDateTime": "2023-04-13T08:01:00.000+00:00",
        "valueDateTime": "2024-02-01T08:00:00.000+00:00"
      },
      "request": {
        "method": "PUT",
        "url": "Observation/b7664584-f685-41fa-9095-ce9bc339b6d8"
      }
    },
    {
      "fullUrl": "https://madie.cms.gov/Coverage/faf4c695-5edb-43c7-aa23-bed7ba0f5630",
      "resource": {
        "resourceType": "Coverage",
        "id": "faf4c695-5edb-43c7-aa23-bed7ba0f5630",
        "meta": {
          "profile": [
            "http://hl7.org/fhir/us/qicore/StructureDefinition/qicore-coverage"
          ]
        },
        "status": "active",
        "beneficiary": {
          "reference": "Patient/d775e2a2-58e2-42e5-95c3-371da81963e3"
        },
        "payor": [
          {
            "reference": "Organization/a6aabefc-07db-47e7-9494-7cc26df0c4fa"
          }
        ]
      },
      "request": {
        "method": "PUT",
        "url": "Coverage/faf4c695-5edb-43c7-aa23-bed7ba0f5630"
      }
    },
    {
      "fullUrl": "https://madie.cms.gov/Organization/a6aabefc-07db-47e7-9494-7cc26df0c4fa",
      "resource": {
        "resourceType": "Organization",
        "id": "a6aabefc-07db-47e7-9494-7cc26df0c4fa",
        "meta": {
          "profile": [
            "http://hl7.org/fhir/us/qicore/StructureDefinition/qicore-organization"
          ]
        },
        "identifier": [
          {
            "use": "temp",
            "system": "urn:oid:2.16.840.1.113883.4.4",
            "value": "21-3259825"
          }
        ],
        "active": true,
        "type": [
          {
            "coding": [
              {
                "system": "http://terminology.hl7.org/CodeSystem/organization-type",
                "code": "pay",
                "display": "Payer"
              }
            ]
          }
        ],
        "name": "Blue Cross Blue Shield of Texas",
        "telecom": [
          {
            "system": "phone",
            "value": "(+1) 972-766-6900"
          }
        ],
        "address": [
          {
            "use": "billing",
            "type": "postal",
            "line": [
              "P.O. Box 660044"
            ],
            "city": "Dallas",
            "state": "TX",
            "postalCode": "75266-0044",
            "country": "USA"
          }
        ]
      },
      "request": {
        "method": "PUT",
        "url": "Organization/a6aabefc-07db-47e7-9494-7cc26df0c4fa"
      }
    },
    {
      "fullUrl": "https://madie.cms.gov/Practitioner/fe06d932-428d-4bbc-9534-6020512fc502",
      "resource": {
        "resourceType": "Practitioner",
        "id": "fe06d932-428d-4bbc-9534-6020512fc502",
        "identifier": [
          {
            "system": "http://hl7.org/fhir/sid/us-npi",
            "value": "123456"
          }
        ],
        "name": [
          {
            "family": "Evil",
            "prefix": [
              "Dr"
            ]
          }
        ]
      },
      "request": {
        "method": "PUT",
        "url": "Practitioner/fe06d932-428d-4bbc-9534-6020512fc502"
      }
    },
    {
      "fullUrl": "https://madie.cms.gov/MeasureReport/9931c8ad-79c9-4553-ab9d-121c16bb3970",
      "resource": {
        "resourceType": "MeasureReport",
        "id": "9931c8ad-79c9-4553-ab9d-121c16bb3970",
        "meta": {
          "profile": [
            "http://hl7.org/fhir/us/cqfmeasures/StructureDefinition/test-case-cqfm"
          ]
        },
        "contained": [
          {
            "resourceType": "Parameters",
            "id": "f76fd8f4-92b9-42ce-8ce8-ca47df4561d3-parameters",
            "parameter": [
              {
                "name": "subject",
                "valueString": "d775e2a2-58e2-42e5-95c3-371da81963e3"
              }
            ]
          }
        ],
        "extension": [
          {
            "url": "http://hl7.org/fhir/us/cqfmeasures/StructureDefinition/cqfm-inputParameters",
            "valueReference": {
              "reference": "#f76fd8f4-92b9-42ce-8ce8-ca47df4561d3-parameters"
            }
          },
          {
            "url": "http://hl7.org/fhir/us/cqfmeasures/StructureDefinition/cqfm-testCaseDescription",
            "valueMarkdown": "Last assessment Performed, Estimated Delivery Date, Relevant time, 1 minute short of 42 weeks before Delivery Result Date/Time\n"
          }
        ],
        "modifierExtension": [
          {
            "url": "http://hl7.org/fhir/us/cqfmeasures/StructureDefinition/cqfm-isTestCase",
            "valueBoolean": true
          }
        ],
        "status": "complete",
        "type": "individual",
        "measure": "https://madie.cms.gov/Measure/SevereObstetricComplicationsFHIR",
        "period": {
          "start": "2024-01-01",
          "end": "2024-12-31"
        },
        "group": [
          {
            "population": [
              {
                "code": {
                  "coding": [
                    {
                      "system": "http://terminology.hl7.org/CodeSystem/measure-population",
                      "code": "initial-population",
                      "display": "Initial Population"
                    }
                  ]
                },
                "count": 1
              },
              {
                "code": {
                  "coding": [
                    {
                      "system": "http://terminology.hl7.org/CodeSystem/measure-population",
                      "code": "denominator",
                      "display": "Denominator"
                    }
                  ]
                },
                "count": 1
              },
              {
                "code": {
                  "coding": [
                    {
                      "system": "http://terminology.hl7.org/CodeSystem/measure-population",
                      "code": "denominator-exclusion",
                      "display": "Denominator Exclusion"
                    }
                  ]
                },
                "count": 0
              },
              {
                "code": {
                  "coding": [
                    {
                      "system": "http://terminology.hl7.org/CodeSystem/measure-population",
                      "code": "numerator",
                      "display": "Numerator"
                    }
                  ]
                },
                "count": 0
              }
            ]
          }
        ],
        "evaluatedResource": [
          {
            "reference": "Patient/d775e2a2-58e2-42e5-95c3-371da81963e3"
          },
          {
            "reference": "Encounter/d28e14d4-fc73-4949-9b6e-16d17ea69dae"
          },
          {
            "reference": "Procedure/0ab3da2f-f513-475a-8176-82aba980dbc0"
          },
          {
            "reference": "Observation/5b74240d-2247-452d-b4ad-0647815b1797"
          },
          {
            "reference": "Observation/b7664584-f685-41fa-9095-ce9bc339b6d8"
          },
          {
            "reference": "Coverage/faf4c695-5edb-43c7-aa23-bed7ba0f5630"
          },
          {
            "reference": "Organization/a6aabefc-07db-47e7-9494-7cc26df0c4fa"
          },
          {
            "reference": "Practitioner/fe06d932-428d-4bbc-9534-6020512fc502"
          }
        ]
      },
      "request": {
        "method": "PUT",
        "url": "MeasureReport/9931c8ad-79c9-4553-ab9d-121c16bb3970"
      }
    }
  ]
}