{
  "resourceType": "Bundle",
  "id": "633b3fa00968f80122503d10",
  "type": "transaction",
  "entry": [
    {
      "fullUrl": "https://madie.cms.gov/Patient/9e9f3655-a5e9-47bb-aff8-e2006ed51290",
      "resource": {
        "resourceType": "Patient",
        "id": "9e9f3655-a5e9-47bb-aff8-e2006ed51290",
        "meta": {
          "profile": [
            "http://hl7.org/fhir/us/qicore/StructureDefinition/qicore-patient"
          ]
        },
        "text": {
          "status": "generated",
          "div": "<div xmlns=\"http://www.w3.org/1999/xhtml\"><div class=\"hapiHeaderText\">DelProcRelDtTimeUsedInsteadOfPeriod <b>IPPASS </b></div><table class=\"hapiPropertyTable\"><tbody><tr><td>Date of birth</td><td><span>02 February 1947</span></td></tr></tbody></table></div>"
        },
        "extension": [
          {
            "url": "http://hl7.org/fhir/us/core/StructureDefinition/us-core-race",
            "extension": [
              {
                "url": "ombCategory",
                "valueCoding": {
                  "system": "urn:oid:2.16.840.1.113883.6.238",
                  "code": "1002-5",
                  "display": "American Indian or Alaska Native",
                  "userSelected": true
                }
              },
              {
                "url": "text",
                "valueString": "American Indian or Alaska Native"
              }
            ]
          },
          {
            "url": "http://hl7.org/fhir/us/core/StructureDefinition/us-core-ethnicity",
            "extension": [
              {
                "url": "ombCategory",
                "valueCoding": {
                  "system": "urn:oid:2.16.840.1.113883.6.238",
                  "code": "2135-2",
                  "display": "Hispanic or Latino",
                  "userSelected": true
                }
              },
              {
                "url": "text",
                "valueString": "Hispanic or Latino"
              }
            ]
          }
        ],
        "identifier": [
          {
            "type": {
              "coding": [
                {
                  "system": "http://terminology.hl7.org/CodeSystem/v2-0203",
                  "code": "MR"
                }
              ]
            },
            "system": "https://bonnie-fhir.healthit.gov/",
            "value": "633b3fa00968f80122503d10"
          }
        ],
        "active": true,
        "name": [
          {
            "use": "usual",
            "family": "IPPass",
            "given": [
              "DelProcRelDtTimeUsedInsteadOfPeriod"
            ]
          }
        ],
        "gender": "female",
        "birthDate": "1959-02-02"
      },
      "request": {
        "method": "PUT",
        "url": "Patient/9e9f3655-a5e9-47bb-aff8-e2006ed51290"
      }
    },
    {
      "fullUrl": "https://madie.cms.gov/Encounter/a69f32a8-6fc2-4604-816a-4ebd6f3365b0",
      "resource": {
        "resourceType": "Encounter",
        "id": "a69f32a8-6fc2-4604-816a-4ebd6f3365b0",
        "meta": {
          "profile": [
            "http://hl7.org/fhir/us/qicore/StructureDefinition/qicore-encounter"
          ]
        },
        "status": "finished",
        "class": {
          "system": "http://terminology.hl7.org/CodeSystem/v3-ActCode",
          "code": "IMP",
          "display": "inpatient encounter"
        },
        "type": [
          {
            "coding": [
              {
                "system": "http://snomed.info/sct",
                "code": "183452005"
              }
            ]
          }
        ],
        "subject": {
          "reference": "Patient/9e9f3655-a5e9-47bb-aff8-e2006ed51290"
        },
        "period": {
          "start": "2024-02-01T08:00:00.000Z",
          "end": "2024-02-05T08:15:00.000Z"
        }
      },
      "request": {
        "method": "PUT",
        "url": "Encounter/a69f32a8-6fc2-4604-816a-4ebd6f3365b0"
      }
    },
    {
      "fullUrl": "https://madie.cms.gov/Procedure/5497c5bc-79b8-4ae4-9b7d-88c94a0df3f6",
      "resource": {
        "resourceType": "Procedure",
        "id": "5497c5bc-79b8-4ae4-9b7d-88c94a0df3f6",
        "meta": {
          "profile": [
            "http://hl7.org/fhir/us/qicore/StructureDefinition/qicore-procedure"
          ]
        },
        "extension": [
          {
            "url": "http://hl7.org/fhir/us/qicore/StructureDefinition/qicore-recorded",
            "valueDateTime": "2013-04-05T09:35:00-04:00"
          }
        ],
        "status": "completed",
        "code": {
          "coding": [
            {
              "system": "http://snomed.info/sct",
              "code": "10745001"
            }
          ]
        },
        "subject": {
          "reference": "Patient/9e9f3655-a5e9-47bb-aff8-e2006ed51290"
        },
        "performedDateTime": "2024-02-01T08:00:00.000+00:00"
      },
      "request": {
        "method": "PUT",
        "url": "Procedure/5497c5bc-79b8-4ae4-9b7d-88c94a0df3f6"
      }
    },
    {
      "fullUrl": "https://madie.cms.gov/Coverage/7051f887-0e48-4fc1-8b9d-0f753fb449e6",
      "resource": {
        "resourceType": "Coverage",
        "id": "7051f887-0e48-4fc1-8b9d-0f753fb449e6",
        "meta": {
          "profile": [
            "http://hl7.org/fhir/us/qicore/StructureDefinition/qicore-coverage"
          ]
        },
        "status": "active",
        "beneficiary": {
          "reference": "Patient/9e9f3655-a5e9-47bb-aff8-e2006ed51290"
        },
        "payor": [
          {
            "reference": "Organization/f98e9be9-0e83-400a-8d63-0a5e17ea361c"
          }
        ]
      },
      "request": {
        "method": "PUT",
        "url": "Coverage/7051f887-0e48-4fc1-8b9d-0f753fb449e6"
      }
    },
    {
      "fullUrl": "https://madie.cms.gov/Organization/f98e9be9-0e83-400a-8d63-0a5e17ea361c",
      "resource": {
        "resourceType": "Organization",
        "id": "f98e9be9-0e83-400a-8d63-0a5e17ea361c",
        "meta": {
          "profile": [
            "http://hl7.org/fhir/us/qicore/StructureDefinition/qicore-organization"
          ]
        },
        "identifier": [
          {
            "use": "temp",
            "system": "urn:oid:2.16.840.1.113883.4.4",
            "value": "21-3259825"
          }
        ],
        "active": true,
        "type": [
          {
            "coding": [
              {
                "system": "http://terminology.hl7.org/CodeSystem/organization-type",
                "code": "pay",
                "display": "Payer"
              }
            ]
          }
        ],
        "name": "Blue Cross Blue Shield of Texas",
        "telecom": [
          {
            "system": "phone",
            "value": "(+1) 972-766-6900"
          }
        ],
        "address": [
          {
            "use": "billing",
            "type": "postal",
            "line": [
              "P.O. Box 660044"
            ],
            "city": "Dallas",
            "state": "TX",
            "postalCode": "75266-0044",
            "country": "USA"
          }
        ]
      },
      "request": {
        "method": "PUT",
        "url": "Organization/f98e9be9-0e83-400a-8d63-0a5e17ea361c"
      }
    },
    {
      "fullUrl": "https://madie.cms.gov/Practitioner/08599ef1-bc21-443d-b9f3-3b944e9bfcfa",
      "resource": {
        "resourceType": "Practitioner",
        "id": "08599ef1-bc21-443d-b9f3-3b944e9bfcfa",
        "identifier": [
          {
            "system": "http://hl7.org/fhir/sid/us-npi",
            "value": "123456"
          }
        ],
        "name": [
          {
            "family": "Evil",
            "prefix": [
              "Dr"
            ]
          }
        ]
      },
      "request": {
        "method": "PUT",
        "url": "Practitioner/08599ef1-bc21-443d-b9f3-3b944e9bfcfa"
      }
    },
    {
      "fullUrl": "https://madie.cms.gov/MeasureReport/afa91ae6-cfbb-485c-b7ef-f644efbfa3bd",
      "resource": {
        "resourceType": "MeasureReport",
        "id": "afa91ae6-cfbb-485c-b7ef-f644efbfa3bd",
        "meta": {
          "profile": [
            "http://hl7.org/fhir/us/cqfmeasures/StructureDefinition/test-case-cqfm"
          ]
        },
        "contained": [
          {
            "resourceType": "Parameters",
            "id": "3e7121f4-fc29-43a0-980e-4c8257580b84-parameters",
            "parameter": [
              {
                "name": "subject",
                "valueString": "9e9f3655-a5e9-47bb-aff8-e2006ed51290"
              }
            ]
          }
        ],
        "extension": [
          {
            "url": "http://hl7.org/fhir/us/cqfmeasures/StructureDefinition/cqfm-inputParameters",
            "valueReference": {
              "reference": "#3e7121f4-fc29-43a0-980e-4c8257580b84-parameters"
            }
          },
          {
            "url": "http://hl7.org/fhir/us/cqfmeasures/StructureDefinition/cqfm-testCaseDescription",
            "valueMarkdown": "Patient is 64 years and 364 days of age on day encounter starts.  Relevant Date/Time used instead of Relevant Period.\n"
          }
        ],
        "modifierExtension": [
          {
            "url": "http://hl7.org/fhir/us/cqfmeasures/StructureDefinition/cqfm-isTestCase",
            "valueBoolean": true
          }
        ],
        "status": "complete",
        "type": "individual",
        "measure": "https://madie.cms.gov/Measure/SevereObstetricComplicationsFHIR",
        "period": {
          "start": "2024-01-01",
          "end": "2024-12-31"
        },
        "group": [
          {
            "population": [
              {
                "code": {
                  "coding": [
                    {
                      "system": "http://terminology.hl7.org/CodeSystem/measure-population",
                      "code": "initial-population",
                      "display": "Initial Population"
                    }
                  ]
                },
                "count": 1
              },
              {
                "code": {
                  "coding": [
                    {
                      "system": "http://terminology.hl7.org/CodeSystem/measure-population",
                      "code": "denominator",
                      "display": "Denominator"
                    }
                  ]
                },
                "count": 0
              },
              {
                "code": {
                  "coding": [
                    {
                      "system": "http://terminology.hl7.org/CodeSystem/measure-population",
                      "code": "denominator-exclusion",
                      "display": "Denominator Exclusion"
                    }
                  ]
                },
                "count": 0
              },
              {
                "code": {
                  "coding": [
                    {
                      "system": "http://terminology.hl7.org/CodeSystem/measure-population",
                      "code": "numerator",
                      "display": "Numerator"
                    }
                  ]
                },
                "count": 0
              }
            ]
          }
        ],
        "evaluatedResource": [
          {
            "reference": "Patient/9e9f3655-a5e9-47bb-aff8-e2006ed51290"
          },
          {
            "reference": "Encounter/a69f32a8-6fc2-4604-816a-4ebd6f3365b0"
          },
          {
            "reference": "Procedure/5497c5bc-79b8-4ae4-9b7d-88c94a0df3f6"
          },
          {
            "reference": "Coverage/7051f887-0e48-4fc1-8b9d-0f753fb449e6"
          },
          {
            "reference": "Organization/f98e9be9-0e83-400a-8d63-0a5e17ea361c"
          },
          {
            "reference": "Practitioner/08599ef1-bc21-443d-b9f3-3b944e9bfcfa"
          }
        ]
      },
      "request": {
        "method": "PUT",
        "url": "MeasureReport/afa91ae6-cfbb-485c-b7ef-f644efbfa3bd"
      }
    }
  ]
}