{
  "resourceType": "Bundle",
  "id": "6129135a02c62a011f2e777e",
  "type": "transaction",
  "entry": [
    {
      "fullUrl": "https://madie.cms.gov/Patient/90012e1b-cbc5-471e-9f26-e4e9f4a59dd3",
      "resource": {
        "resourceType": "Patient",
        "id": "90012e1b-cbc5-471e-9f26-e4e9f4a59dd3",
        "meta": {
          "profile": [
            "http://hl7.org/fhir/us/qicore/StructureDefinition/qicore-patient"
          ]
        },
        "text": {
          "status": "generated",
          "div": "<div xmlns=\"http://www.w3.org/1999/xhtml\"><div class=\"hapiHeaderText\">NonEleInpEncounter_AgeGT18LOSLT120Ethnicity <b>IPPASS </b></div><table class=\"hapiPropertyTable\"><tbody><tr><td>Identifier</td><td>98bbafa0f3f0ba2f58ea7c825e2454d6</td></tr><tr><td>Date of birth</td><td><span>20 August 1993</span></td></tr></tbody></table></div>"
        },
        "extension": [
          {
            "url": "http://hl7.org/fhir/us/core/StructureDefinition/us-core-race",
            "extension": [
              {
                "url": "ombCategory",
                "valueCoding": {
                  "system": "urn:oid:2.16.840.1.113883.6.238",
                  "code": "1002-5",
                  "display": "American Indian or Alaska Native",
                  "userSelected": true
                }
              },
              {
                "url": "text",
                "valueString": "American Indian or Alaska Native"
              }
            ]
          },
          {
            "url": "http://hl7.org/fhir/us/core/StructureDefinition/us-core-ethnicity",
            "extension": [
              {
                "url": "ombCategory",
                "valueCoding": {
                  "system": "urn:oid:2.16.840.1.113883.6.238",
                  "code": "2135-2",
                  "display": "Hispanic or Latino",
                  "userSelected": true
                }
              },
              {
                "url": "text",
                "valueString": "Hispanic or Latino"
              }
            ]
          }
        ],
        "identifier": [
          {
            "type": {
              "coding": [
                {
                  "system": "http://terminology.hl7.org/CodeSystem/v2-0203",
                  "code": "MR"
                }
              ]
            },
            "system": "https://bonnie-fhir.healthit.gov/",
            "value": "6129135a02c62a011f2e777e"
          }
        ],
        "active": true,
        "name": [
          {
            "use": "usual",
            "family": "IPPass",
            "given": [
              "NonEleInpEncounter_AgeGT18LOSLT120EthnGenCov"
            ]
          }
        ],
        "gender": "other",
        "birthDate": "2002-08-20"
      },
      "request": {
        "method": "PUT",
        "url": "Patient/90012e1b-cbc5-471e-9f26-e4e9f4a59dd3"
      }
    },
    {
      "fullUrl": "https://madie.cms.gov/Encounter/04f7e94f-3286-493f-bb4d-9b9444d048de",
      "resource": {
        "resourceType": "Encounter",
        "id": "04f7e94f-3286-493f-bb4d-9b9444d048de",
        "meta": {
          "profile": [
            "http://hl7.org/fhir/us/qicore/StructureDefinition/qicore-encounter"
          ]
        },
        "status": "finished",
        "class": {
          "system": "http://terminology.hl7.org/CodeSystem/v3-ActCode",
          "code": "IMP",
          "display": "inpatient encounter",
          "userSelected": true
        },
        "type": [
          {
            "coding": [
              {
                "system": "http://snomed.info/sct",
                "code": "32485007"
              }
            ]
          }
        ],
        "subject": {
          "reference": "Patient/90012e1b-cbc5-471e-9f26-e4e9f4a59dd3"
        },
        "period": {
          "start": "2025-08-21T00:00:00.000+00:00",
          "end": "2025-12-18T23:59:00.000+00:00"
        },
        "length": {
          "value": 119,
          "unit": "days"
        },
        "diagnosis": [
          {
            "condition": {
              "reference": "Condition/b5e42172-aac4-42f4-a2f5-47a4b5764a11"
            },
            "use": {
              "coding": [
                {
                  "system": "http://terminology.hl7.org/CodeSystem/diagnosis-role",
                  "code": "billing",
                  "display": "Billing"
                }
              ]
            },
            "rank": 1
          }
        ]
      },
      "request": {
        "method": "PUT",
        "url": "Encounter/04f7e94f-3286-493f-bb4d-9b9444d048de"
      }
    },
    {
      "fullUrl": "https://madie.cms.gov/Condition/b5e42172-aac4-42f4-a2f5-47a4b5764a11",
      "resource": {
        "resourceType": "Condition",
        "id": "b5e42172-aac4-42f4-a2f5-47a4b5764a11",
        "meta": {
          "profile": [
            "http://hl7.org/fhir/us/qicore/StructureDefinition/qicore-condition"
          ]
        },
        "clinicalStatus": {
          "coding": [
            {
              "system": "http://terminology.hl7.org/CodeSystem/condition-clinical",
              "code": "active"
            }
          ]
        },
        "verificationStatus": {
          "coding": [
            {
              "system": "http://terminology.hl7.org/CodeSystem/condition-ver-status",
              "code": "confirmed"
            }
          ]
        },
        "category": [
          {
            "coding": [
              {
                "system": "http://terminology.hl7.org/CodeSystem/condition-category",
                "code": "encounter-diagnosis",
                "display": "Encounter Diagnosis"
              }
            ]
          }
        ],
        "code": {
          "coding": [
            {
              "system": "http://snomed.info/sct",
              "version": "2020-09",
              "code": "422504002",
              "display": "Ischemic stroke (disorder)",
              "userSelected": true
            }
          ]
        },
        "subject": {
          "reference": "Patient/90012e1b-cbc5-471e-9f26-e4e9f4a59dd3"
        },
        "recordedDate": "2025-07-15T08:00:00.000+00:00"
      },
      "request": {
        "method": "PUT",
        "url": "Condition/b5e42172-aac4-42f4-a2f5-47a4b5764a11"
      }
    },
    {
      "fullUrl": "https://madie.cms.gov/Coverage/39220afc-c3d5-47bd-b29a-fcbf5148563f",
      "resource": {
        "resourceType": "Coverage",
        "id": "39220afc-c3d5-47bd-b29a-fcbf5148563f",
        "meta": {
          "profile": [
            "http://hl7.org/fhir/us/qicore/StructureDefinition/qicore-coverage"
          ]
        },
        "status": "active",
        "type": {
          "coding": [
            {
              "system": "https://nahdo.org/sopt",
              "code": "1",
              "display": "MEDICARE"
            }
          ]
        },
        "beneficiary": {
          "reference": "Patient/90012e1b-cbc5-471e-9f26-e4e9f4a59dd3"
        },
        "period": {
          "start": "2015-01-01T08:00:00.000+00:00"
        },
        "payor": [
          {
            "reference": "Organization/5e77b890-5990-4755-a982-4af0d557b5cc"
          }
        ]
      },
      "request": {
        "method": "PUT",
        "url": "Coverage/39220afc-c3d5-47bd-b29a-fcbf5148563f"
      }
    },
    {
      "fullUrl": "https://madie.cms.gov/Organization/5e77b890-5990-4755-a982-4af0d557b5cc",
      "resource": {
        "resourceType": "Organization",
        "id": "5e77b890-5990-4755-a982-4af0d557b5cc",
        "meta": {
          "profile": [
            "http://hl7.org/fhir/us/qicore/StructureDefinition/qicore-organization"
          ]
        },
        "identifier": [
          {
            "use": "temp",
            "system": "urn:oid:2.16.840.1.113883.4.4",
            "value": "21-3259825"
          }
        ],
        "active": true,
        "type": [
          {
            "coding": [
              {
                "system": "http://terminology.hl7.org/CodeSystem/organization-type",
                "code": "pay",
                "display": "Payer"
              }
            ]
          }
        ],
        "name": "Blue Cross Blue Shield of Texas",
        "telecom": [
          {
            "system": "phone",
            "value": "(+1) 972-766-6900"
          }
        ],
        "address": [
          {
            "use": "billing",
            "type": "postal",
            "line": [
              "P.O. Box 660044"
            ],
            "city": "Dallas",
            "state": "TX",
            "postalCode": "75266-0044",
            "country": "USA"
          }
        ]
      },
      "request": {
        "method": "PUT",
        "url": "Organization/5e77b890-5990-4755-a982-4af0d557b5cc"
      }
    },
    {
      "fullUrl": "https://madie.cms.gov/MeasureReport/2c4f515a-7448-46fc-930d-d4ac2e068055",
      "resource": {
        "resourceType": "MeasureReport",
        "id": "2c4f515a-7448-46fc-930d-d4ac2e068055",
        "meta": {
          "profile": [
            "http://hl7.org/fhir/us/cqfmeasures/StructureDefinition/test-case-cqfm"
          ]
        },
        "contained": [
          {
            "resourceType": "Parameters",
            "id": "d15efbfa-cbd0-4d2d-b5a6-6f93f7ffcc5e-parameters",
            "parameter": [
              {
                "name": "subject",
                "valueString": "90012e1b-cbc5-471e-9f26-e4e9f4a59dd3"
              }
            ]
          }
        ],
        "extension": [
          {
            "url": "http://hl7.org/fhir/us/cqfmeasures/StructureDefinition/cqfm-inputParameters",
            "valueReference": {
              "reference": "#d15efbfa-cbd0-4d2d-b5a6-6f93f7ffcc5e-parameters"
            }
          },
          {
            "url": "http://hl7.org/fhir/us/cqfmeasures/StructureDefinition/cqfm-testCaseDescription",
            "valueMarkdown": "Patient is greater than 18 with Non-Elective Inpatient Encounter (LOS 119 days) with principal diagnosis of ischemic stroke ends during MP. Includes Ethnicity Coverage. \n"
          }
        ],
        "modifierExtension": [
          {
            "url": "http://hl7.org/fhir/us/cqfmeasures/StructureDefinition/cqfm-isTestCase",
            "valueBoolean": true
          }
        ],
        "status": "complete",
        "type": "individual",
        "measure": "https://madie.cms.gov/Measure/DischargedonAntithromboticTherapyFHIR",
        "period": {
          "start": "2025-01-01",
          "end": "2025-12-31"
        },
        "group": [
          {
            "population": [
              {
                "code": {
                  "coding": [
                    {
                      "system": "http://terminology.hl7.org/CodeSystem/measure-population",
                      "code": "initial-population",
                      "display": "Initial Population"
                    }
                  ]
                },
                "count": 1
              },
              {
                "code": {
                  "coding": [
                    {
                      "system": "http://terminology.hl7.org/CodeSystem/measure-population",
                      "code": "denominator",
                      "display": "Denominator"
                    }
                  ]
                },
                "count": 1
              },
              {
                "code": {
                  "coding": [
                    {
                      "system": "http://terminology.hl7.org/CodeSystem/measure-population",
                      "code": "denominator-exclusion",
                      "display": "Denominator Exclusion"
                    }
                  ]
                },
                "count": 0
              },
              {
                "code": {
                  "coding": [
                    {
                      "system": "http://terminology.hl7.org/CodeSystem/measure-population",
                      "code": "numerator",
                      "display": "Numerator"
                    }
                  ]
                },
                "count": 0
              },
              {
                "code": {
                  "coding": [
                    {
                      "system": "http://terminology.hl7.org/CodeSystem/measure-population",
                      "code": "denominator-exception",
                      "display": "Denominator Exception"
                    }
                  ]
                },
                "count": 0
              }
            ]
          }
        ],
        "evaluatedResource": [
          {
            "reference": "Patient/90012e1b-cbc5-471e-9f26-e4e9f4a59dd3"
          },
          {
            "reference": "Encounter/04f7e94f-3286-493f-bb4d-9b9444d048de"
          },
          {
            "reference": "Condition/b5e42172-aac4-42f4-a2f5-47a4b5764a11"
          },
          {
            "reference": "Coverage/39220afc-c3d5-47bd-b29a-fcbf5148563f"
          },
          {
            "reference": "Organization/5e77b890-5990-4755-a982-4af0d557b5cc"
          }
        ]
      },
      "request": {
        "method": "PUT",
        "url": "MeasureReport/2c4f515a-7448-46fc-930d-d4ac2e068055"
      }
    }
  ]
}