{
  "resourceType": "Bundle",
  "id": "6129133e02c62a011f2e6a2c",
  "type": "transaction",
  "entry": [
    {
      "fullUrl": "https://madie.cms.gov/Patient/dccb6e5a-17ce-4d6d-9906-8922ca14537d",
      "resource": {
        "resourceType": "Patient",
        "id": "dccb6e5a-17ce-4d6d-9906-8922ca14537d",
        "meta": {
          "profile": [
            "http://hl7.org/fhir/us/qicore/StructureDefinition/qicore-patient"
          ]
        },
        "text": {
          "status": "generated",
          "div": "<div xmlns=\"http://www.w3.org/1999/xhtml\"><div class=\"hapiHeaderText\">CMOdurObs_ED&lt;1hrObs&lt;1hrBFEnc <b>DENEXPASS </b></div><table class=\"hapiPropertyTable\"><tbody><tr><td>Identifier</td><td>be1b0e9bc1417561cde46dac918ff4d2</td></tr><tr><td>Date of birth</td><td><span>21 August 1994</span></td></tr></tbody></table></div>"
        },
        "extension": [
          {
            "url": "http://hl7.org/fhir/us/core/StructureDefinition/us-core-race",
            "extension": [
              {
                "url": "ombCategory",
                "valueCoding": {
                  "system": "urn:oid:2.16.840.1.113883.6.238",
                  "code": "1002-5",
                  "display": "American Indian or Alaska Native",
                  "userSelected": true
                }
              },
              {
                "url": "text",
                "valueString": "American Indian or Alaska Native"
              }
            ]
          },
          {
            "url": "http://hl7.org/fhir/us/core/StructureDefinition/us-core-ethnicity",
            "extension": [
              {
                "url": "ombCategory",
                "valueCoding": {
                  "system": "urn:oid:2.16.840.1.113883.6.238",
                  "code": "2135-2",
                  "display": "Hispanic or Latino",
                  "userSelected": true
                }
              },
              {
                "url": "text",
                "valueString": "Hispanic or Latino"
              }
            ]
          }
        ],
        "identifier": [
          {
            "type": {
              "coding": [
                {
                  "system": "http://terminology.hl7.org/CodeSystem/v2-0203",
                  "code": "MR"
                }
              ]
            },
            "system": "https://bonnie-fhir.healthit.gov/",
            "value": "6129133e02c62a011f2e6a2c"
          }
        ],
        "active": true,
        "name": [
          {
            "use": "usual",
            "family": "DENEXPass",
            "given": [
              "CMOdurObs_ED<1hrObs<1hrBFEnc"
            ]
          }
        ],
        "gender": "male",
        "birthDate": "1994-08-21"
      },
      "request": {
        "method": "PUT",
        "url": "Patient/dccb6e5a-17ce-4d6d-9906-8922ca14537d"
      }
    },
    {
      "fullUrl": "https://madie.cms.gov/Encounter/1f7d88d3-31a6-49a0-b450-b47b82ddb36a",
      "resource": {
        "resourceType": "Encounter",
        "id": "1f7d88d3-31a6-49a0-b450-b47b82ddb36a",
        "meta": {
          "profile": [
            "http://hl7.org/fhir/us/qicore/StructureDefinition/qicore-encounter"
          ]
        },
        "status": "finished",
        "class": {
          "system": "http://terminology.hl7.org/CodeSystem/v3-ActCode",
          "code": "EMER",
          "display": "emergency",
          "userSelected": true
        },
        "type": [
          {
            "coding": [
              {
                "system": "http://snomed.info/sct",
                "code": "4525004"
              }
            ]
          }
        ],
        "subject": {
          "reference": "Patient/dccb6e5a-17ce-4d6d-9906-8922ca14537d"
        },
        "period": {
          "start": "2025-10-10T07:30:00.000+00:00",
          "end": "2025-10-10T07:31:00.000+00:00"
        },
        "length": {
          "value": 0,
          "unit": "days"
        }
      },
      "request": {
        "method": "PUT",
        "url": "Encounter/1f7d88d3-31a6-49a0-b450-b47b82ddb36a"
      }
    },
    {
      "fullUrl": "https://madie.cms.gov/Encounter/b71bf922-ca52-441d-a343-078c91567784",
      "resource": {
        "resourceType": "Encounter",
        "id": "b71bf922-ca52-441d-a343-078c91567784",
        "meta": {
          "profile": [
            "http://hl7.org/fhir/us/qicore/StructureDefinition/qicore-encounter"
          ]
        },
        "status": "finished",
        "class": {
          "system": "http://terminology.hl7.org/CodeSystem/v3-ActCode",
          "code": "OBSENC",
          "display": "observation encounter",
          "userSelected": true
        },
        "type": [
          {
            "coding": [
              {
                "system": "http://snomed.info/sct",
                "code": "448851000124103"
              }
            ]
          }
        ],
        "subject": {
          "reference": "Patient/dccb6e5a-17ce-4d6d-9906-8922ca14537d"
        },
        "period": {
          "start": "2025-10-10T07:32:00.000+00:00",
          "end": "2025-10-10T08:00:00.000+00:00"
        },
        "length": {
          "value": 0,
          "unit": "days"
        }
      },
      "request": {
        "method": "PUT",
        "url": "Encounter/b71bf922-ca52-441d-a343-078c91567784"
      }
    },
    {
      "fullUrl": "https://madie.cms.gov/Encounter/b921c948-fc30-47e4-9f7d-ebe0a2d9dc7f",
      "resource": {
        "resourceType": "Encounter",
        "id": "b921c948-fc30-47e4-9f7d-ebe0a2d9dc7f",
        "meta": {
          "profile": [
            "http://hl7.org/fhir/us/qicore/StructureDefinition/qicore-encounter"
          ]
        },
        "status": "finished",
        "class": {
          "system": "http://terminology.hl7.org/CodeSystem/v3-ActCode",
          "code": "IMP",
          "display": "inpatient encounter",
          "userSelected": true
        },
        "type": [
          {
            "coding": [
              {
                "system": "http://snomed.info/sct",
                "code": "32485007"
              }
            ]
          }
        ],
        "subject": {
          "reference": "Patient/dccb6e5a-17ce-4d6d-9906-8922ca14537d"
        },
        "period": {
          "start": "2025-10-10T08:01:00.000+00:00",
          "end": "2025-10-12T10:30:00.000+00:00"
        },
        "length": {
          "value": 2,
          "unit": "days"
        },
        "diagnosis": [
          {
            "condition": {
              "reference": "Condition/55f1e9e4-c5e5-4945-a9a0-c453b6c2aa84"
            },
            "use": {
              "coding": [
                {
                  "system": "http://terminology.hl7.org/CodeSystem/diagnosis-role",
                  "code": "billing",
                  "display": "Billing"
                }
              ]
            },
            "rank": 1
          }
        ]
      },
      "request": {
        "method": "PUT",
        "url": "Encounter/b921c948-fc30-47e4-9f7d-ebe0a2d9dc7f"
      }
    },
    {
      "fullUrl": "https://madie.cms.gov/ServiceRequest/a372c075-0017-49a6-90d1-3f71079c9982",
      "resource": {
        "resourceType": "ServiceRequest",
        "id": "a372c075-0017-49a6-90d1-3f71079c9982",
        "meta": {
          "profile": [
            "http://hl7.org/fhir/us/qicore/StructureDefinition/qicore-servicerequest"
          ]
        },
        "status": "active",
        "intent": "order",
        "code": {
          "coding": [
            {
              "system": "http://snomed.info/sct",
              "code": "133918004"
            }
          ]
        },
        "subject": {
          "reference": "Patient/dccb6e5a-17ce-4d6d-9906-8922ca14537d"
        },
        "authoredOn": "2025-10-12T08:00:00.000+00:00"
      },
      "request": {
        "method": "PUT",
        "url": "ServiceRequest/a372c075-0017-49a6-90d1-3f71079c9982"
      }
    },
    {
      "fullUrl": "https://madie.cms.gov/Condition/55f1e9e4-c5e5-4945-a9a0-c453b6c2aa84",
      "resource": {
        "resourceType": "Condition",
        "id": "55f1e9e4-c5e5-4945-a9a0-c453b6c2aa84",
        "meta": {
          "profile": [
            "http://hl7.org/fhir/us/qicore/StructureDefinition/qicore-condition"
          ]
        },
        "clinicalStatus": {
          "coding": [
            {
              "system": "http://terminology.hl7.org/CodeSystem/condition-clinical",
              "code": "active"
            }
          ]
        },
        "verificationStatus": {
          "coding": [
            {
              "system": "http://terminology.hl7.org/CodeSystem/condition-ver-status",
              "code": "confirmed"
            }
          ]
        },
        "category": [
          {
            "coding": [
              {
                "system": "http://terminology.hl7.org/CodeSystem/condition-category",
                "code": "encounter-diagnosis",
                "display": "Encounter Diagnosis"
              }
            ]
          }
        ],
        "code": {
          "coding": [
            {
              "system": "http://snomed.info/sct",
              "version": "2020-09",
              "code": "111297002",
              "display": "Nonparalytic stroke (disorder)",
              "userSelected": true
            }
          ]
        },
        "subject": {
          "reference": "Patient/dccb6e5a-17ce-4d6d-9906-8922ca14537d"
        },
        "recordedDate": "2025-07-15T08:00:00.000+00:00"
      },
      "request": {
        "method": "PUT",
        "url": "Condition/55f1e9e4-c5e5-4945-a9a0-c453b6c2aa84"
      }
    },
    {
      "fullUrl": "https://madie.cms.gov/Coverage/b94df90c-64bc-43f5-992f-c22e7999c8fe",
      "resource": {
        "resourceType": "Coverage",
        "id": "b94df90c-64bc-43f5-992f-c22e7999c8fe",
        "meta": {
          "profile": [
            "http://hl7.org/fhir/us/qicore/StructureDefinition/qicore-coverage"
          ]
        },
        "status": "active",
        "beneficiary": {
          "reference": "Patient/dccb6e5a-17ce-4d6d-9906-8922ca14537d"
        },
        "payor": [
          {
            "reference": "Organization/af2ee310-8ee7-4d29-9ed0-e97ac54e4e81"
          }
        ]
      },
      "request": {
        "method": "PUT",
        "url": "Coverage/b94df90c-64bc-43f5-992f-c22e7999c8fe"
      }
    },
    {
      "fullUrl": "https://madie.cms.gov/Organization/af2ee310-8ee7-4d29-9ed0-e97ac54e4e81",
      "resource": {
        "resourceType": "Organization",
        "id": "af2ee310-8ee7-4d29-9ed0-e97ac54e4e81",
        "meta": {
          "profile": [
            "http://hl7.org/fhir/us/qicore/StructureDefinition/qicore-organization"
          ]
        },
        "identifier": [
          {
            "use": "temp",
            "system": "urn:oid:2.16.840.1.113883.4.4",
            "value": "21-3259825"
          }
        ],
        "active": true,
        "type": [
          {
            "coding": [
              {
                "system": "http://terminology.hl7.org/CodeSystem/organization-type",
                "code": "pay",
                "display": "Payer"
              }
            ]
          }
        ],
        "name": "Blue Cross Blue Shield of Texas",
        "telecom": [
          {
            "system": "phone",
            "value": "(+1) 972-766-6900"
          }
        ],
        "address": [
          {
            "use": "billing",
            "type": "postal",
            "line": [
              "P.O. Box 660044"
            ],
            "city": "Dallas",
            "state": "TX",
            "postalCode": "75266-0044",
            "country": "USA"
          }
        ]
      },
      "request": {
        "method": "PUT",
        "url": "Organization/af2ee310-8ee7-4d29-9ed0-e97ac54e4e81"
      }
    },
    {
      "fullUrl": "https://madie.cms.gov/MeasureReport/0e3ef667-de0b-4caa-9c1e-d8f0ba500246",
      "resource": {
        "resourceType": "MeasureReport",
        "id": "0e3ef667-de0b-4caa-9c1e-d8f0ba500246",
        "meta": {
          "profile": [
            "http://hl7.org/fhir/us/cqfmeasures/StructureDefinition/test-case-cqfm"
          ]
        },
        "contained": [
          {
            "resourceType": "Parameters",
            "id": "c21a6510-f3ff-4c73-a62b-33fff17f3e49-parameters",
            "parameter": [
              {
                "name": "subject",
                "valueString": "dccb6e5a-17ce-4d6d-9906-8922ca14537d"
              }
            ]
          }
        ],
        "extension": [
          {
            "url": "http://hl7.org/fhir/us/cqfmeasures/StructureDefinition/cqfm-inputParameters",
            "valueReference": {
              "reference": "#c21a6510-f3ff-4c73-a62b-33fff17f3e49-parameters"
            }
          },
          {
            "url": "http://hl7.org/fhir/us/cqfmeasures/StructureDefinition/cqfm-testCaseDescription",
            "valueMarkdown": "Patient receives comfort measures order during ED visit that ends <= 1 hour before IP Encounter"
          }
        ],
        "modifierExtension": [
          {
            "url": "http://hl7.org/fhir/us/cqfmeasures/StructureDefinition/cqfm-isTestCase",
            "valueBoolean": true
          }
        ],
        "status": "complete",
        "type": "individual",
        "measure": "https://madie.cms.gov/Measure/DischargedonAntithromboticTherapyFHIR",
        "period": {
          "start": "2025-01-01",
          "end": "2025-12-31"
        },
        "group": [
          {
            "population": [
              {
                "code": {
                  "coding": [
                    {
                      "system": "http://terminology.hl7.org/CodeSystem/measure-population",
                      "code": "initial-population",
                      "display": "Initial Population"
                    }
                  ]
                },
                "count": 1
              },
              {
                "code": {
                  "coding": [
                    {
                      "system": "http://terminology.hl7.org/CodeSystem/measure-population",
                      "code": "denominator",
                      "display": "Denominator"
                    }
                  ]
                },
                "count": 1
              },
              {
                "code": {
                  "coding": [
                    {
                      "system": "http://terminology.hl7.org/CodeSystem/measure-population",
                      "code": "denominator-exclusion",
                      "display": "Denominator Exclusion"
                    }
                  ]
                },
                "count": 1
              },
              {
                "code": {
                  "coding": [
                    {
                      "system": "http://terminology.hl7.org/CodeSystem/measure-population",
                      "code": "numerator",
                      "display": "Numerator"
                    }
                  ]
                },
                "count": 0
              },
              {
                "code": {
                  "coding": [
                    {
                      "system": "http://terminology.hl7.org/CodeSystem/measure-population",
                      "code": "denominator-exception",
                      "display": "Denominator Exception"
                    }
                  ]
                },
                "count": 0
              }
            ]
          }
        ],
        "evaluatedResource": [
          {
            "reference": "Patient/dccb6e5a-17ce-4d6d-9906-8922ca14537d"
          },
          {
            "reference": "Encounter/1f7d88d3-31a6-49a0-b450-b47b82ddb36a"
          },
          {
            "reference": "Encounter/b71bf922-ca52-441d-a343-078c91567784"
          },
          {
            "reference": "Encounter/b921c948-fc30-47e4-9f7d-ebe0a2d9dc7f"
          },
          {
            "reference": "ServiceRequest/a372c075-0017-49a6-90d1-3f71079c9982"
          },
          {
            "reference": "Condition/55f1e9e4-c5e5-4945-a9a0-c453b6c2aa84"
          },
          {
            "reference": "Coverage/b94df90c-64bc-43f5-992f-c22e7999c8fe"
          },
          {
            "reference": "Organization/af2ee310-8ee7-4d29-9ed0-e97ac54e4e81"
          }
        ]
      },
      "request": {
        "method": "PUT",
        "url": "MeasureReport/0e3ef667-de0b-4caa-9c1e-d8f0ba500246"
      }
    }
  ]
}