{
  "resourceType": "Bundle",
  "id": "6129133502c62a011f2e65ed",
  "type": "transaction",
  "entry": [
    {
      "fullUrl": "https://madie.cms.gov/Patient/2e5c86d6-953d-48a9-9346-4114abd67ad1",
      "resource": {
        "resourceType": "Patient",
        "id": "2e5c86d6-953d-48a9-9346-4114abd67ad1",
        "meta": {
          "profile": [
            "http://hl7.org/fhir/us/qicore/StructureDefinition/qicore-patient"
          ]
        },
        "text": {
          "status": "generated",
          "div": "<div xmlns=\"http://www.w3.org/1999/xhtml\"><div class=\"hapiHeaderText\">IPEncDuringMPExpiresAfterIPEnc <b>IPPASS </b></div><table class=\"hapiPropertyTable\"><tbody><tr><td>Identifier</td><td>841d34360819f0ad9f40fe7dece9713e</td></tr><tr><td>Date of birth</td><td><span>20 August 1994</span></td></tr></tbody></table></div>"
        },
        "extension": [
          {
            "url": "http://hl7.org/fhir/us/core/StructureDefinition/us-core-race",
            "extension": [
              {
                "url": "ombCategory",
                "valueCoding": {
                  "system": "urn:oid:2.16.840.1.113883.6.238",
                  "code": "1002-5",
                  "display": "American Indian or Alaska Native",
                  "userSelected": true
                }
              },
              {
                "url": "text",
                "valueString": "American Indian or Alaska Native"
              }
            ]
          },
          {
            "url": "http://hl7.org/fhir/us/core/StructureDefinition/us-core-ethnicity",
            "extension": [
              {
                "url": "ombCategory",
                "valueCoding": {
                  "system": "urn:oid:2.16.840.1.113883.6.238",
                  "code": "2135-2",
                  "display": "Hispanic or Latino",
                  "userSelected": true
                }
              },
              {
                "url": "text",
                "valueString": "Hispanic or Latino"
              }
            ]
          }
        ],
        "identifier": [
          {
            "type": {
              "coding": [
                {
                  "system": "http://terminology.hl7.org/CodeSystem/v2-0203",
                  "code": "MR"
                }
              ]
            },
            "system": "https://bonnie-fhir.healthit.gov/",
            "value": "6129133502c62a011f2e65ed"
          }
        ],
        "active": true,
        "name": [
          {
            "use": "usual",
            "family": "IPPass",
            "given": [
              "IPEncDuringMPExpiresAfterIPEnc"
            ]
          }
        ],
        "gender": "male",
        "birthDate": "2005-08-20",
        "deceasedDateTime": "2025-12-20T08:00:00.000Z"
      },
      "request": {
        "method": "PUT",
        "url": "Patient/2e5c86d6-953d-48a9-9346-4114abd67ad1"
      }
    },
    {
      "fullUrl": "https://madie.cms.gov/Encounter/e2185319-dec7-4943-9230-64b5b17c9bfc",
      "resource": {
        "resourceType": "Encounter",
        "id": "e2185319-dec7-4943-9230-64b5b17c9bfc",
        "meta": {
          "profile": [
            "http://hl7.org/fhir/us/qicore/StructureDefinition/qicore-encounter"
          ]
        },
        "status": "finished",
        "class": {
          "system": "http://terminology.hl7.org/CodeSystem/v3-ActCode",
          "code": "IMP",
          "display": "inpatient encounter",
          "userSelected": true
        },
        "type": [
          {
            "coding": [
              {
                "system": "http://snomed.info/sct",
                "code": "32485007"
              }
            ]
          }
        ],
        "subject": {
          "reference": "Patient/2e5c86d6-953d-48a9-9346-4114abd67ad1"
        },
        "period": {
          "start": "2025-08-21T00:00:00.000+00:00",
          "end": "2025-12-19T23:59:00.000+00:00"
        },
        "length": {
          "value": 120,
          "unit": "days"
        },
        "diagnosis": [
          {
            "condition": {
              "reference": "Condition/0275bd88-8174-4f0c-a935-a6d0b0ec80d0"
            },
            "use": {
              "coding": [
                {
                  "system": "http://terminology.hl7.org/CodeSystem/diagnosis-role",
                  "code": "billing",
                  "display": "Billing"
                }
              ]
            },
            "rank": 1
          }
        ]
      },
      "request": {
        "method": "PUT",
        "url": "Encounter/e2185319-dec7-4943-9230-64b5b17c9bfc"
      }
    },
    {
      "fullUrl": "https://madie.cms.gov/Condition/0275bd88-8174-4f0c-a935-a6d0b0ec80d0",
      "resource": {
        "resourceType": "Condition",
        "id": "0275bd88-8174-4f0c-a935-a6d0b0ec80d0",
        "meta": {
          "profile": [
            "http://hl7.org/fhir/us/qicore/StructureDefinition/qicore-condition"
          ]
        },
        "clinicalStatus": {
          "coding": [
            {
              "system": "http://terminology.hl7.org/CodeSystem/condition-clinical",
              "code": "active"
            }
          ]
        },
        "verificationStatus": {
          "coding": [
            {
              "system": "http://terminology.hl7.org/CodeSystem/condition-ver-status",
              "code": "confirmed"
            }
          ]
        },
        "category": [
          {
            "coding": [
              {
                "system": "http://terminology.hl7.org/CodeSystem/condition-category",
                "code": "encounter-diagnosis",
                "display": "Encounter Diagnosis"
              }
            ]
          }
        ],
        "code": {
          "coding": [
            {
              "system": "http://snomed.info/sct",
              "version": "2020-09",
              "code": "111297002",
              "display": "Nonparalytic stroke (disorder)",
              "userSelected": true
            }
          ]
        },
        "subject": {
          "reference": "Patient/2e5c86d6-953d-48a9-9346-4114abd67ad1"
        },
        "recordedDate": "2025-07-15T08:00:00.000+00:00"
      },
      "request": {
        "method": "PUT",
        "url": "Condition/0275bd88-8174-4f0c-a935-a6d0b0ec80d0"
      }
    },
    {
      "fullUrl": "https://madie.cms.gov/Coverage/d466817b-6d9d-4d3e-bf2c-3030247e18cc",
      "resource": {
        "resourceType": "Coverage",
        "id": "d466817b-6d9d-4d3e-bf2c-3030247e18cc",
        "meta": {
          "profile": [
            "http://hl7.org/fhir/us/qicore/StructureDefinition/qicore-coverage"
          ]
        },
        "status": "active",
        "beneficiary": {
          "reference": "Patient/2e5c86d6-953d-48a9-9346-4114abd67ad1"
        },
        "payor": [
          {
            "reference": "Organization/26e47df1-3fe2-44aa-bb75-803ae1b103dc"
          }
        ]
      },
      "request": {
        "method": "PUT",
        "url": "Coverage/d466817b-6d9d-4d3e-bf2c-3030247e18cc"
      }
    },
    {
      "fullUrl": "https://madie.cms.gov/Organization/26e47df1-3fe2-44aa-bb75-803ae1b103dc",
      "resource": {
        "resourceType": "Organization",
        "id": "26e47df1-3fe2-44aa-bb75-803ae1b103dc",
        "meta": {
          "profile": [
            "http://hl7.org/fhir/us/qicore/StructureDefinition/qicore-organization"
          ]
        },
        "identifier": [
          {
            "use": "temp",
            "system": "urn:oid:2.16.840.1.113883.4.4",
            "value": "21-3259825"
          }
        ],
        "active": true,
        "type": [
          {
            "coding": [
              {
                "system": "http://terminology.hl7.org/CodeSystem/organization-type",
                "code": "pay",
                "display": "Payer"
              }
            ]
          }
        ],
        "name": "Blue Cross Blue Shield of Texas",
        "telecom": [
          {
            "system": "phone",
            "value": "(+1) 972-766-6900"
          }
        ],
        "address": [
          {
            "use": "billing",
            "type": "postal",
            "line": [
              "P.O. Box 660044"
            ],
            "city": "Dallas",
            "state": "TX",
            "postalCode": "75266-0044",
            "country": "USA"
          }
        ]
      },
      "request": {
        "method": "PUT",
        "url": "Organization/26e47df1-3fe2-44aa-bb75-803ae1b103dc"
      }
    },
    {
      "fullUrl": "https://madie.cms.gov/MeasureReport/2bfbe120-df20-4cc3-9bb3-dafdf9297cd3",
      "resource": {
        "resourceType": "MeasureReport",
        "id": "2bfbe120-df20-4cc3-9bb3-dafdf9297cd3",
        "meta": {
          "profile": [
            "http://hl7.org/fhir/us/cqfmeasures/StructureDefinition/test-case-cqfm"
          ]
        },
        "contained": [
          {
            "resourceType": "Parameters",
            "id": "08846f73-80c3-4cda-9c5e-7c60398b8539-parameters",
            "parameter": [
              {
                "name": "subject",
                "valueString": "2e5c86d6-953d-48a9-9346-4114abd67ad1"
              }
            ]
          }
        ],
        "extension": [
          {
            "url": "http://hl7.org/fhir/us/cqfmeasures/StructureDefinition/cqfm-inputParameters",
            "valueReference": {
              "reference": "#08846f73-80c3-4cda-9c5e-7c60398b8539-parameters"
            }
          },
          {
            "url": "http://hl7.org/fhir/us/cqfmeasures/StructureDefinition/cqfm-testCaseDescription",
            "valueMarkdown": "Patient is 18 with Non-Elective Inpatient Encounter (LOS 120 days) with principal diagnosis of ischemic stroke ends during MP, expired after EncIP\n"
          }
        ],
        "modifierExtension": [
          {
            "url": "http://hl7.org/fhir/us/cqfmeasures/StructureDefinition/cqfm-isTestCase",
            "valueBoolean": true
          }
        ],
        "status": "complete",
        "type": "individual",
        "measure": "https://madie.cms.gov/Measure/DischargedonAntithromboticTherapyFHIR",
        "period": {
          "start": "2025-01-01",
          "end": "2025-12-31"
        },
        "group": [
          {
            "population": [
              {
                "code": {
                  "coding": [
                    {
                      "system": "http://terminology.hl7.org/CodeSystem/measure-population",
                      "code": "initial-population",
                      "display": "Initial Population"
                    }
                  ]
                },
                "count": 1
              },
              {
                "code": {
                  "coding": [
                    {
                      "system": "http://terminology.hl7.org/CodeSystem/measure-population",
                      "code": "denominator",
                      "display": "Denominator"
                    }
                  ]
                },
                "count": 1
              },
              {
                "code": {
                  "coding": [
                    {
                      "system": "http://terminology.hl7.org/CodeSystem/measure-population",
                      "code": "denominator-exclusion",
                      "display": "Denominator Exclusion"
                    }
                  ]
                },
                "count": 0
              },
              {
                "code": {
                  "coding": [
                    {
                      "system": "http://terminology.hl7.org/CodeSystem/measure-population",
                      "code": "numerator",
                      "display": "Numerator"
                    }
                  ]
                },
                "count": 0
              },
              {
                "code": {
                  "coding": [
                    {
                      "system": "http://terminology.hl7.org/CodeSystem/measure-population",
                      "code": "denominator-exception",
                      "display": "Denominator Exception"
                    }
                  ]
                },
                "count": 0
              }
            ]
          }
        ],
        "evaluatedResource": [
          {
            "reference": "Patient/2e5c86d6-953d-48a9-9346-4114abd67ad1"
          },
          {
            "reference": "Encounter/e2185319-dec7-4943-9230-64b5b17c9bfc"
          },
          {
            "reference": "Condition/0275bd88-8174-4f0c-a935-a6d0b0ec80d0"
          },
          {
            "reference": "Coverage/d466817b-6d9d-4d3e-bf2c-3030247e18cc"
          },
          {
            "reference": "Organization/26e47df1-3fe2-44aa-bb75-803ae1b103dc"
          }
        ]
      },
      "request": {
        "method": "PUT",
        "url": "MeasureReport/2bfbe120-df20-4cc3-9bb3-dafdf9297cd3"
      }
    }
  ]
}