{
  "resourceType": "Bundle",
  "id": "6129131a02c62a011f2e5ba9",
  "type": "transaction",
  "entry": [
    {
      "fullUrl": "https://madie.cms.gov/Patient/ea3d8950-023f-4bf6-a8a1-ec37e03f84ff",
      "resource": {
        "resourceType": "Patient",
        "id": "ea3d8950-023f-4bf6-a8a1-ec37e03f84ff",
        "meta": {
          "profile": [
            "http://hl7.org/fhir/us/qicore/StructureDefinition/qicore-patient"
          ]
        },
        "text": {
          "status": "generated",
          "div": "<div xmlns=\"http://www.w3.org/1999/xhtml\"><div class=\"hapiHeaderText\">MedDscPatRsnDTimeEQEncStopTime <b>DENEXCEPPASS </b></div><table class=\"hapiPropertyTable\"><tbody><tr><td>Identifier</td><td>f27996c6545ea958dc5266f6c01bdf6c</td></tr><tr><td>Date of birth</td><td><span>21 August 1994</span></td></tr></tbody></table></div>"
        },
        "extension": [
          {
            "url": "http://hl7.org/fhir/us/core/StructureDefinition/us-core-race",
            "extension": [
              {
                "url": "ombCategory",
                "valueCoding": {
                  "system": "urn:oid:2.16.840.1.113883.6.238",
                  "code": "1002-5",
                  "display": "American Indian or Alaska Native",
                  "userSelected": true
                }
              },
              {
                "url": "text",
                "valueString": "American Indian or Alaska Native"
              }
            ]
          },
          {
            "url": "http://hl7.org/fhir/us/core/StructureDefinition/us-core-ethnicity",
            "extension": [
              {
                "url": "ombCategory",
                "valueCoding": {
                  "system": "urn:oid:2.16.840.1.113883.6.238",
                  "code": "2135-2",
                  "display": "Hispanic or Latino",
                  "userSelected": true
                }
              },
              {
                "url": "text",
                "valueString": "Hispanic or Latino"
              }
            ]
          }
        ],
        "identifier": [
          {
            "type": {
              "coding": [
                {
                  "system": "http://terminology.hl7.org/CodeSystem/v2-0203",
                  "code": "MR"
                }
              ]
            },
            "system": "https://bonnie-fhir.healthit.gov/",
            "value": "6129131a02c62a011f2e5ba9"
          }
        ],
        "active": true,
        "name": [
          {
            "use": "usual",
            "family": "DENEXCEPPass",
            "given": [
              "MedDscPatRsnDTimeEQEncStopTime"
            ]
          }
        ],
        "gender": "male",
        "birthDate": "1994-08-21"
      },
      "request": {
        "method": "PUT",
        "url": "Patient/ea3d8950-023f-4bf6-a8a1-ec37e03f84ff"
      }
    },
    {
      "fullUrl": "https://madie.cms.gov/Encounter/afb9c985-1291-430f-8c72-a5aac73bfe6e",
      "resource": {
        "resourceType": "Encounter",
        "id": "afb9c985-1291-430f-8c72-a5aac73bfe6e",
        "meta": {
          "profile": [
            "http://hl7.org/fhir/us/qicore/StructureDefinition/qicore-encounter"
          ]
        },
        "status": "finished",
        "class": {
          "system": "http://terminology.hl7.org/CodeSystem/v3-ActCode",
          "code": "IMP",
          "display": "inpatient encounter",
          "userSelected": true
        },
        "type": [
          {
            "coding": [
              {
                "system": "http://snomed.info/sct",
                "code": "32485007"
              }
            ]
          }
        ],
        "subject": {
          "reference": "Patient/ea3d8950-023f-4bf6-a8a1-ec37e03f84ff"
        },
        "period": {
          "start": "2025-10-10T09:30:00.000+00:00",
          "end": "2025-10-12T10:30:00.000+00:00"
        },
        "length": {
          "value": 2,
          "unit": "days"
        },
        "diagnosis": [
          {
            "condition": {
              "reference": "Condition/e5f7ed2e-efb0-468d-bb45-40cea8da1562"
            },
            "use": {
              "coding": [
                {
                  "system": "http://terminology.hl7.org/CodeSystem/diagnosis-role",
                  "code": "billing",
                  "display": "Billing"
                }
              ]
            },
            "rank": 1
          }
        ]
      },
      "request": {
        "method": "PUT",
        "url": "Encounter/afb9c985-1291-430f-8c72-a5aac73bfe6e"
      }
    },
    {
      "fullUrl": "https://madie.cms.gov/MedicationRequest/b0abc6fd-ef4c-4e36-a8d5-595b59a54980",
      "resource": {
        "resourceType": "MedicationRequest",
        "id": "b0abc6fd-ef4c-4e36-a8d5-595b59a54980",
        "meta": {
          "profile": [
            "http://hl7.org/fhir/us/qicore/StructureDefinition/qicore-mednotrequested"
          ]
        },
        "status": "completed",
        "intent": "order",
        "category": [
          {
            "coding": [
              {
                "system": "http://terminology.hl7.org/CodeSystem/medicationrequest-category",
                "code": "community"
              }
            ]
          }
        ],
        "doNotPerform": true,
        "medicationCodeableConcept": {
          "coding": [
            {
              "system": "http://www.nlm.nih.gov/research/umls/rxnorm",
              "code": "1037045"
            }
          ]
        },
        "subject": {
          "reference": "Patient/ea3d8950-023f-4bf6-a8a1-ec37e03f84ff"
        },
        "authoredOn": "2025-10-12T10:30:00.000+00:00",
        "requester": {
          "reference": "Practitioner/example"
        },
        "reasonCode": [
          {
            "coding": [
              {
                "system": "http://snomed.info/sct",
                "code": "443390004",
                "display": "Refused"
              }
            ]
          }
        ]
      },
      "request": {
        "method": "PUT",
        "url": "MedicationRequest/b0abc6fd-ef4c-4e36-a8d5-595b59a54980"
      }
    },
    {
      "fullUrl": "https://madie.cms.gov/Condition/e5f7ed2e-efb0-468d-bb45-40cea8da1562",
      "resource": {
        "resourceType": "Condition",
        "id": "e5f7ed2e-efb0-468d-bb45-40cea8da1562",
        "meta": {
          "profile": [
            "http://hl7.org/fhir/us/qicore/StructureDefinition/qicore-condition"
          ]
        },
        "clinicalStatus": {
          "coding": [
            {
              "system": "http://terminology.hl7.org/CodeSystem/condition-clinical",
              "code": "active"
            }
          ]
        },
        "verificationStatus": {
          "coding": [
            {
              "system": "http://terminology.hl7.org/CodeSystem/condition-ver-status",
              "code": "confirmed"
            }
          ]
        },
        "category": [
          {
            "coding": [
              {
                "system": "http://terminology.hl7.org/CodeSystem/condition-category",
                "code": "encounter-diagnosis",
                "display": "Encounter Diagnosis"
              }
            ]
          }
        ],
        "code": {
          "coding": [
            {
              "system": "http://snomed.info/sct",
              "version": "2020-09",
              "code": "111297002",
              "display": "Nonparalytic stroke (disorder)",
              "userSelected": true
            }
          ]
        },
        "subject": {
          "reference": "Patient/ea3d8950-023f-4bf6-a8a1-ec37e03f84ff"
        },
        "recordedDate": "2025-07-14T08:00:00.000+00:00"
      },
      "request": {
        "method": "PUT",
        "url": "Condition/e5f7ed2e-efb0-468d-bb45-40cea8da1562"
      }
    },
    {
      "fullUrl": "https://madie.cms.gov/Coverage/23a60c98-2f4c-4daa-b615-45ef20bdc7cd",
      "resource": {
        "resourceType": "Coverage",
        "id": "23a60c98-2f4c-4daa-b615-45ef20bdc7cd",
        "meta": {
          "profile": [
            "http://hl7.org/fhir/us/qicore/StructureDefinition/qicore-coverage"
          ]
        },
        "status": "active",
        "beneficiary": {
          "reference": "Patient/ea3d8950-023f-4bf6-a8a1-ec37e03f84ff"
        },
        "payor": [
          {
            "reference": "Organization/6855d925-54f4-4f30-810b-abb623a082e2"
          }
        ]
      },
      "request": {
        "method": "PUT",
        "url": "Coverage/23a60c98-2f4c-4daa-b615-45ef20bdc7cd"
      }
    },
    {
      "fullUrl": "https://madie.cms.gov/Organization/6855d925-54f4-4f30-810b-abb623a082e2",
      "resource": {
        "resourceType": "Organization",
        "id": "6855d925-54f4-4f30-810b-abb623a082e2",
        "meta": {
          "profile": [
            "http://hl7.org/fhir/us/qicore/StructureDefinition/qicore-organization"
          ]
        },
        "identifier": [
          {
            "use": "temp",
            "system": "urn:oid:2.16.840.1.113883.4.4",
            "value": "21-3259825"
          }
        ],
        "active": true,
        "type": [
          {
            "coding": [
              {
                "system": "http://terminology.hl7.org/CodeSystem/organization-type",
                "code": "pay",
                "display": "Payer"
              }
            ]
          }
        ],
        "name": "Blue Cross Blue Shield of Texas",
        "telecom": [
          {
            "system": "phone",
            "value": "(+1) 972-766-6900"
          }
        ],
        "address": [
          {
            "use": "billing",
            "type": "postal",
            "line": [
              "P.O. Box 660044"
            ],
            "city": "Dallas",
            "state": "TX",
            "postalCode": "75266-0044",
            "country": "USA"
          }
        ]
      },
      "request": {
        "method": "PUT",
        "url": "Organization/6855d925-54f4-4f30-810b-abb623a082e2"
      }
    },
    {
      "fullUrl": "https://madie.cms.gov/MeasureReport/ad7c5fce-b7d1-43a0-af7c-8f4c2d84b726",
      "resource": {
        "resourceType": "MeasureReport",
        "id": "ad7c5fce-b7d1-43a0-af7c-8f4c2d84b726",
        "meta": {
          "profile": [
            "http://hl7.org/fhir/us/cqfmeasures/StructureDefinition/test-case-cqfm"
          ]
        },
        "contained": [
          {
            "resourceType": "Parameters",
            "id": "ed193938-f7d3-49d6-aa6d-3c5620ce1c7a-parameters",
            "parameter": [
              {
                "name": "subject",
                "valueString": "ea3d8950-023f-4bf6-a8a1-ec37e03f84ff"
              }
            ]
          }
        ],
        "extension": [
          {
            "url": "http://hl7.org/fhir/us/cqfmeasures/StructureDefinition/cqfm-inputParameters",
            "valueReference": {
              "reference": "#ed193938-f7d3-49d6-aa6d-3c5620ce1c7a-parameters"
            }
          },
          {
            "url": "http://hl7.org/fhir/us/cqfmeasures/StructureDefinition/cqfm-testCaseDescription",
            "valueMarkdown": "Patient does not get antithrombotic medication due to patient refusal during IP encounter. This case tests the timing boundary for den exception criteria, refusal at end of encounter. "
          }
        ],
        "modifierExtension": [
          {
            "url": "http://hl7.org/fhir/us/cqfmeasures/StructureDefinition/cqfm-isTestCase",
            "valueBoolean": true
          }
        ],
        "status": "complete",
        "type": "individual",
        "measure": "https://madie.cms.gov/Measure/DischargedonAntithromboticTherapyFHIR",
        "period": {
          "start": "2025-01-01",
          "end": "2025-12-31"
        },
        "group": [
          {
            "population": [
              {
                "code": {
                  "coding": [
                    {
                      "system": "http://terminology.hl7.org/CodeSystem/measure-population",
                      "code": "initial-population",
                      "display": "Initial Population"
                    }
                  ]
                },
                "count": 1
              },
              {
                "code": {
                  "coding": [
                    {
                      "system": "http://terminology.hl7.org/CodeSystem/measure-population",
                      "code": "denominator",
                      "display": "Denominator"
                    }
                  ]
                },
                "count": 1
              },
              {
                "code": {
                  "coding": [
                    {
                      "system": "http://terminology.hl7.org/CodeSystem/measure-population",
                      "code": "denominator-exclusion",
                      "display": "Denominator Exclusion"
                    }
                  ]
                },
                "count": 0
              },
              {
                "code": {
                  "coding": [
                    {
                      "system": "http://terminology.hl7.org/CodeSystem/measure-population",
                      "code": "numerator",
                      "display": "Numerator"
                    }
                  ]
                },
                "count": 0
              },
              {
                "code": {
                  "coding": [
                    {
                      "system": "http://terminology.hl7.org/CodeSystem/measure-population",
                      "code": "denominator-exception",
                      "display": "Denominator Exception"
                    }
                  ]
                },
                "count": 1
              }
            ]
          }
        ],
        "evaluatedResource": [
          {
            "reference": "Patient/ea3d8950-023f-4bf6-a8a1-ec37e03f84ff"
          },
          {
            "reference": "Encounter/afb9c985-1291-430f-8c72-a5aac73bfe6e"
          },
          {
            "reference": "MedicationRequest/b0abc6fd-ef4c-4e36-a8d5-595b59a54980"
          },
          {
            "reference": "Condition/e5f7ed2e-efb0-468d-bb45-40cea8da1562"
          },
          {
            "reference": "Coverage/23a60c98-2f4c-4daa-b615-45ef20bdc7cd"
          },
          {
            "reference": "Organization/6855d925-54f4-4f30-810b-abb623a082e2"
          }
        ]
      },
      "request": {
        "method": "PUT",
        "url": "MeasureReport/ad7c5fce-b7d1-43a0-af7c-8f4c2d84b726"
      }
    }
  ]
}