{"resourceType":"Bundle","id":"tests-1b60a224-b384-4c0a-adf0-b0598903b174-bundle","type":"transaction","entry":[{"fullUrl":"https://madie.cms.gov/Patient/1b60a224-b384-4c0a-adf0-b0598903b174","resource":{"resourceType":"Patient","id":"1b60a224-b384-4c0a-adf0-b0598903b174","meta":{"profile":["http://hl7.org/fhir/us/qicore/StructureDefinition/qicore-patient"]},"text":{"status":"generated","div":"<div xmlns=\"http://www.w3.org/1999/xhtml\"><div class=\"hapiHeaderText\">LT24beforeAndLT2after <b>WBCPASS </b></div><table class=\"hapiPropertyTable\"><tbody><tr><td>Identifier</td><td>02a3c13b70ccf5a73b893e80582952bdd83e9cabbf053902bb5eb341874dc5ec</td></tr><tr><td>Date of birth</td><td><span>15 June 1956</span></td></tr></tbody></table></div>"},"extension":[{"url":"http://hl7.org/fhir/us/core/StructureDefinition/us-core-race","extension":[{"url":"ombCategory","valueCoding":{"system":"urn:oid:2.16.840.1.113883.6.238","code":"1002-5","display":"American Indian or Alaska Native","userSelected":true}},{"url":"text","valueString":"American Indian or Alaska Native"}]},{"url":"http://hl7.org/fhir/us/core/StructureDefinition/us-core-ethnicity","extension":[{"url":"ombCategory","valueCoding":{"system":"urn:oid:2.16.840.1.113883.6.238","code":"2186-5","display":"Not Hispanic or Latino","userSelected":true}},{"url":"text","valueString":"Not Hispanic or Latino"}]}],"identifier":[{"type":{"coding":[{"system":"http://terminology.hl7.org/CodeSystem/v2-0203","code":"MR"}]},"system":"https://bonnie-fhir.healthit.gov/","value":"63ec096accb3770120fe9fa2"}],"active":true,"name":[{"use":"usual","family":"AllLabsPass","given":["ObsIPEncountersWithLabsDuringTimeframe"]}],"gender":"male","birthDate":"1960-07-01"},"request":{"method":"PUT","url":"Patient/1b60a224-b384-4c0a-adf0-b0598903b174"}},{"fullUrl":"https://madie.cms.gov/Encounter/86cac624-40f7-42b7-95a7-58b517fb2181","resource":{"resourceType":"Encounter","id":"86cac624-40f7-42b7-95a7-58b517fb2181","meta":{"profile":["http://hl7.org/fhir/us/qicore/StructureDefinition/qicore-encounter"]},"status":"finished","class":{"system":"http://terminology.hl7.org/CodeSystem/v3-ActCode","code":"OBSENC","display":"observation encounter","userSelected":true},"type":[{"coding":[{"system":"http://snomed.info/sct","code":"448951000124107","display":"Admission to observation unit (procedure)"}]}],"subject":{"reference":"Patient/1b60a224-b384-4c0a-adf0-b0598903b174"},"period":{"start":"2025-07-01T08:00:00.000+00:00","end":"2025-07-02T07:15:00.000+00:00"},"length":{"value":1,"unit":"days"}},"request":{"method":"PUT","url":"Encounter/86cac624-40f7-42b7-95a7-58b517fb2181"}},{"fullUrl":"https://madie.cms.gov/Encounter/3e0b2d7b-0ab3-4d7d-9901-88ab90a51f7c","resource":{"resourceType":"Encounter","id":"3e0b2d7b-0ab3-4d7d-9901-88ab90a51f7c","meta":{"profile":["http://hl7.org/fhir/us/qicore/StructureDefinition/qicore-encounter"]},"status":"finished","class":{"system":"http://terminology.hl7.org/CodeSystem/v3-ActCode","code":"IMP","display":"inpatient encounter","userSelected":true},"type":[{"coding":[{"system":"http://snomed.info/sct","code":"183452005"}]}],"subject":{"reference":"Patient/1b60a224-b384-4c0a-adf0-b0598903b174"},"period":{"start":"2025-07-02T07:15:00.000+00:00","end":"2025-07-05T23:59:00.000+00:00"},"length":{"value":3,"unit":"days"}},"request":{"method":"PUT","url":"Encounter/3e0b2d7b-0ab3-4d7d-9901-88ab90a51f7c"}},{"fullUrl":"https://madie.cms.gov/Observation/150ff110-f1e7-4564-b1a2-1daa546ee107","resource":{"resourceType":"Observation","id":"150ff110-f1e7-4564-b1a2-1daa546ee107","meta":{"profile":["http://hl7.org/fhir/us/core/StructureDefinition/us-core-observation-lab"]},"status":"final","category":[{"coding":[{"system":"http://terminology.hl7.org/CodeSystem/observation-category","code":"laboratory","display":"laboratory","userSelected":true}]}],"code":{"coding":[{"system":"http://loinc.org","code":"14627-4","display":"Bicarbonate [Moles/volume] in Venous blood"}]},"subject":{"reference":"Patient/1b60a224-b384-4c0a-adf0-b0598903b174"},"effectiveDateTime":"2025-07-01T08:00:00.000+00:00","issued":"2025-07-01T08:00:00.000+00:00","valueQuantity":{"value":25,"unit":"mmol/L","system":"http://unitsofmeasure.org","code":"mg/dL"}},"request":{"method":"PUT","url":"Observation/150ff110-f1e7-4564-b1a2-1daa546ee107"}},{"fullUrl":"https://madie.cms.gov/Observation/ed5c1f44-0ce2-47eb-bbec-3db8dd0a178f","resource":{"resourceType":"Observation","id":"ed5c1f44-0ce2-47eb-bbec-3db8dd0a178f","meta":{"profile":["http://hl7.org/fhir/us/core/StructureDefinition/us-core-observation-lab"]},"status":"final","category":[{"coding":[{"system":"http://terminology.hl7.org/CodeSystem/observation-category","code":"laboratory","display":"laboratory","userSelected":true}]}],"code":{"coding":[{"system":"http://loinc.org","version":"2.69","code":"14682-9","display":"Creatinine [Moles/volume] in Serum or Plasma","userSelected":true}]},"subject":{"reference":"Patient/1b60a224-b384-4c0a-adf0-b0598903b174"},"issued":"2025-07-01T10:00:00.000+00:00","valueQuantity":{"value":2,"unit":"mg/dL","system":"http://unitsofmeasure.org","code":"mg/dL"}},"request":{"method":"PUT","url":"Observation/ed5c1f44-0ce2-47eb-bbec-3db8dd0a178f"}},{"fullUrl":"https://madie.cms.gov/Observation/068f37ed-3ef0-46e7-b2a1-28a89f583b5b","resource":{"resourceType":"Observation","id":"068f37ed-3ef0-46e7-b2a1-28a89f583b5b","meta":{"profile":["http://hl7.org/fhir/us/core/StructureDefinition/us-core-observation-lab"]},"status":"final","category":[{"coding":[{"system":"http://terminology.hl7.org/CodeSystem/observation-category","code":"laboratory","display":"Laboratory","userSelected":true}]}],"code":{"coding":[{"system":"http://loinc.org","code":"20570-8","display":"Hematocrit [Volume Fraction] of Blood"}]},"subject":{"reference":"Patient/1b60a224-b384-4c0a-adf0-b0598903b174"},"effectiveDateTime":"2025-07-02T07:15:00.000+00:00","issued":"2025-07-02T07:15:00.000+00:00","valueQuantity":{"value":50,"unit":"%","system":"http://unitsofmeasure.org","code":"%"}},"request":{"method":"PUT","url":"Observation/068f37ed-3ef0-46e7-b2a1-28a89f583b5b"}},{"fullUrl":"https://madie.cms.gov/Observation/24da5e77-c184-474e-a2ec-a584c45a03c2","resource":{"resourceType":"Observation","id":"24da5e77-c184-474e-a2ec-a584c45a03c2","meta":{"profile":["http://hl7.org/fhir/us/core/StructureDefinition/us-core-observation-lab"]},"status":"final","category":[{"coding":[{"system":"http://terminology.hl7.org/CodeSystem/observation-category","code":"laboratory","display":"Laboratory","userSelected":true}]}],"code":{"coding":[{"system":"http://loinc.org","code":"26464-8","display":"Leukocytes [#/volume] in Blood"}]},"subject":{"reference":"Patient/1b60a224-b384-4c0a-adf0-b0598903b174"},"issued":"2025-07-03T07:15:00.000+00:00","valueQuantity":{"value":5000,"unit":"uL","system":"http://unitsofmeasure.org","code":"uL"}},"request":{"method":"PUT","url":"Observation/24da5e77-c184-474e-a2ec-a584c45a03c2"}},{"fullUrl":"https://madie.cms.gov/Observation/3f64ea90-4da6-4b36-8993-708497f75b77","resource":{"resourceType":"Observation","id":"3f64ea90-4da6-4b36-8993-708497f75b77","meta":{"profile":["http://hl7.org/fhir/us/core/StructureDefinition/us-core-observation-lab"]},"status":"final","category":[{"coding":[{"system":"http://terminology.hl7.org/CodeSystem/observation-category","code":"laboratory","display":"Laboratory","userSelected":true}]}],"code":{"coding":[{"system":"http://loinc.org","code":"13056-7","display":"Platelets [#/volume] in Plasma by Automated count"}]},"subject":{"reference":"Patient/1b60a224-b384-4c0a-adf0-b0598903b174"},"effectiveDateTime":"2025-07-03T07:15:00.000+00:00","issued":"2025-07-03T07:15:00.000+00:00","valueQuantity":{"value":150000,"unit":"/uL","system":"http://unitsofmeasure.org","code":"/uL"}},"request":{"method":"PUT","url":"Observation/3f64ea90-4da6-4b36-8993-708497f75b77"}},{"fullUrl":"https://madie.cms.gov/Observation/a8c80c4a-c544-48e6-b63f-cd0201c6caa3","resource":{"resourceType":"Observation","id":"a8c80c4a-c544-48e6-b63f-cd0201c6caa3","meta":{"profile":["http://hl7.org/fhir/us/core/StructureDefinition/us-core-observation-lab"]},"status":"final","category":[{"coding":[{"system":"http://terminology.hl7.org/CodeSystem/observation-category","code":"laboratory","display":"laboratory","userSelected":true}]}],"code":{"coding":[{"system":"http://loinc.org","code":"2947-0","display":"Sodium [Moles/volume] in Blood"}]},"subject":{"reference":"Patient/1b60a224-b384-4c0a-adf0-b0598903b174"},"effectiveDateTime":"2024-07-03T07:15:00.000+00:00","issued":"2025-07-03T07:15:00.000+00:00","valueQuantity":{"value":5,"unit":"meq/L","system":"http://unitsofmeasure.org","code":"meq/L"}},"request":{"method":"PUT","url":"Observation/a8c80c4a-c544-48e6-b63f-cd0201c6caa3"}},{"fullUrl":"https://madie.cms.gov/Coverage/ac10c6ff-9c06-4b6d-95fc-43f2788803fd","resource":{"resourceType":"Coverage","id":"ac10c6ff-9c06-4b6d-95fc-43f2788803fd","meta":{"profile":["http://hl7.org/fhir/us/qicore/StructureDefinition/qicore-coverage"]},"status":"active","type":{"coding":[{"system":"https://nahdo.org/sopt","version":"9.2","code":"1","display":"MEDICARE","userSelected":true}]},"beneficiary":{"reference":"Patient/1b60a224-b384-4c0a-adf0-b0598903b174"},"period":{"start":"2025-01-01T00:00:00+00:00"},"payor":[{"reference":"Organization/412caacf-2688-4d0f-8001-c87240f57306"}]},"request":{"method":"PUT","url":"Coverage/ac10c6ff-9c06-4b6d-95fc-43f2788803fd"}},{"fullUrl":"https://madie.cms.gov/Organization/412caacf-2688-4d0f-8001-c87240f57306","resource":{"resourceType":"Organization","id":"412caacf-2688-4d0f-8001-c87240f57306","meta":{"profile":["http://hl7.org/fhir/us/qicore/StructureDefinition/qicore-organization"]},"identifier":[{"use":"temp","system":"urn:oid:2.16.840.1.113883.4.4","value":"21-3259825"}],"active":true,"type":[{"coding":[{"system":"http://terminology.hl7.org/CodeSystem/organization-type","code":"pay","display":"Payer"}]}],"name":"Blue Cross Blue Shield of Texas","telecom":[{"system":"phone","value":"(+1) 972-766-6900"}],"address":[{"use":"billing","type":"postal","line":["P.O. Box 660044"],"city":"Dallas","state":"TX","postalCode":"75266-0044","country":"USA"}]},"request":{"method":"PUT","url":"Organization/412caacf-2688-4d0f-8001-c87240f57306"}},{"fullUrl":"https://madie.cms.gov/Practitioner/0bb5e68c-53ba-486b-b4ea-b446cf3bad3e","resource":{"resourceType":"Practitioner","id":"0bb5e68c-53ba-486b-b4ea-b446cf3bad3e","meta":{"profile":["http://hl7.org/fhir/us/qicore/StructureDefinition/qicore-practitioner"]},"identifier":[{"system":"http://hl7.org/fhir/sid/us-npi","value":"123456"}],"name":[{"family":"Evil","prefix":["Dr"]}]},"request":{"method":"PUT","url":"Practitioner/0bb5e68c-53ba-486b-b4ea-b446cf3bad3e"}},{"fullUrl":"https://madie.cms.gov/MeasureReport/7b1d62bf-21d7-4079-b5b4-3cf52bdab576","resource":{"resourceType":"MeasureReport","id":"7b1d62bf-21d7-4079-b5b4-3cf52bdab576","meta":{"profile":["http://hl7.org/fhir/us/cqfmeasures/StructureDefinition/test-case-cqfm"]},"contained":[{"resourceType":"Parameters","id":"474cd811-ed3d-48cc-baec-7f332e3c7833-parameters","parameter":[{"name":"subject","valueString":"1b60a224-b384-4c0a-adf0-b0598903b174"}]}],"extension":[{"url":"http://hl7.org/fhir/us/cqfmeasures/StructureDefinition/cqfm-inputParameters","valueReference":{"reference":"#474cd811-ed3d-48cc-baec-7f332e3c7833-parameters"}},{"url":"http://hl7.org/fhir/us/cqfmeasures/StructureDefinition/cqfm-testCaseDescription","valueMarkdown":"Patient has Medicare and is age 65 start of Observation enc: bicarbonate lab performed at start of Obs enc; creatinine @ 2 hrs after start;  Inpatient enc: hematocrit @ admission; WBC, platelets, and sodium 24 hrs after admit; "}],"modifierExtension":[{"url":"http://hl7.org/fhir/us/cqfmeasures/StructureDefinition/cqfm-isTestCase","valueBoolean":true}],"status":"complete","type":"individual","measure":"https://madie.cms.gov/Measure/HybridHospitalWideMortalityFHIR","period":{"start":"2025-07-01","end":"2026-06-30"},"group":[{"population":[{"code":{"coding":[{"system":"http://terminology.hl7.org/CodeSystem/measure-population","code":"initial-population","display":"Initial Population"}]},"count":1}]}],"evaluatedResource":[{"reference":"Patient/1b60a224-b384-4c0a-adf0-b0598903b174"},{"reference":"Encounter/86cac624-40f7-42b7-95a7-58b517fb2181"},{"reference":"Encounter/3e0b2d7b-0ab3-4d7d-9901-88ab90a51f7c"},{"reference":"Observation/150ff110-f1e7-4564-b1a2-1daa546ee107"},{"reference":"Observation/ed5c1f44-0ce2-47eb-bbec-3db8dd0a178f"},{"reference":"Observation/068f37ed-3ef0-46e7-b2a1-28a89f583b5b"},{"reference":"Observation/24da5e77-c184-474e-a2ec-a584c45a03c2"},{"reference":"Observation/3f64ea90-4da6-4b36-8993-708497f75b77"},{"reference":"Observation/a8c80c4a-c544-48e6-b63f-cd0201c6caa3"},{"reference":"Coverage/ac10c6ff-9c06-4b6d-95fc-43f2788803fd"},{"reference":"Organization/412caacf-2688-4d0f-8001-c87240f57306"},{"reference":"Practitioner/0bb5e68c-53ba-486b-b4ea-b446cf3bad3e"}]},"request":{"method":"PUT","url":"MeasureReport/7b1d62bf-21d7-4079-b5b4-3cf52bdab576"}}]}