{"resourceType":"Bundle","id":"tests-db63909b-c60f-45fc-8160-f40808d1444d-bundle","type":"transaction","entry":[{"fullUrl":"https://madie.cms.gov/Patient/db63909b-c60f-45fc-8160-f40808d1444d","resource":{"resourceType":"Patient","id":"db63909b-c60f-45fc-8160-f40808d1444d","meta":{"profile":["http://hl7.org/fhir/us/qicore/StructureDefinition/qicore-patient"]},"text":{"status":"generated","div":"<div xmlns=\"http://www.w3.org/1999/xhtml\"><div class=\"hapiHeaderText\">Enc365Days <b>IPFAIL </b></div><table class=\"hapiPropertyTable\"><tbody><tr><td>Identifier</td><td>b2ac2068f7257396cf52f5da8f4745c8dfa740356675ebf48da1df05c252eae1</td></tr><tr><td>Date of birth</td><td><span>15 June 1956</span></td></tr></tbody></table></div>"},"extension":[{"url":"http://hl7.org/fhir/us/core/StructureDefinition/us-core-race","extension":[{"url":"ombCategory","valueCoding":{"system":"urn:oid:2.16.840.1.113883.6.238","code":"1002-5","display":"American Indian or Alaska Native","userSelected":true}},{"url":"text","valueString":"American Indian or Alaska Native"},{"url":"detailed","valueCoding":{"system":"urn:oid:2.16.840.1.113883.6.238","code":"1653-5","display":"Tohono O'Odham"}}]},{"url":"http://hl7.org/fhir/us/core/StructureDefinition/us-core-ethnicity","extension":[{"url":"ombCategory","valueCoding":{"system":"urn:oid:2.16.840.1.113883.6.238","code":"2135-2","display":"Hispanic or Latino","userSelected":true}},{"url":"text","valueString":"Not Hispanic or Latino"},{"url":"detailed","valueCoding":{"system":"urn:oid:2.16.840.1.113883.6.238","code":"2153-5","display":"Mexican American Indian"}}]}],"identifier":[{"type":{"coding":[{"system":"http://terminology.hl7.org/CodeSystem/v2-0203","code":"MR"}]},"system":"https://bonnie-fhir.healthit.gov/","value":"63ec096dccb3770120fea31f"}],"active":true,"name":[{"use":"usual","family":"IPFail","given":["Encounter365Days"]}],"gender":"female","birthDate":"1956-06-15"},"request":{"method":"PUT","url":"Patient/db63909b-c60f-45fc-8160-f40808d1444d"}},{"fullUrl":"https://madie.cms.gov/Encounter/dce967ae-c7e2-4929-89fd-1f3409d5ccc6","resource":{"resourceType":"Encounter","id":"dce967ae-c7e2-4929-89fd-1f3409d5ccc6","meta":{"profile":["http://hl7.org/fhir/us/qicore/StructureDefinition/qicore-encounter"]},"status":"finished","class":{"system":"http://snomed.info/sct","code":"183452005","display":"Emergency hospital admission (procedure)","userSelected":true},"type":[{"coding":[{"system":"http://snomed.info/sct","code":"183452005"}]}],"subject":{"reference":"Patient/db63909b-c60f-45fc-8160-f40808d1444d"},"period":{"start":"2025-06-29T00:01:00+00:00","end":"2026-06-30T23:59:00+00:00"},"length":{"value":365,"unit":"days"}},"request":{"method":"PUT","url":"Encounter/dce967ae-c7e2-4929-89fd-1f3409d5ccc6"}},{"fullUrl":"https://madie.cms.gov/Coverage/de6697d4-9859-4d43-b7e8-5b3f4ab265a4","resource":{"resourceType":"Coverage","id":"de6697d4-9859-4d43-b7e8-5b3f4ab265a4","meta":{"profile":["http://hl7.org/fhir/us/qicore/StructureDefinition/qicore-coverage"]},"status":"active","type":{"coding":[{"system":"https://nahdo.org/sopt","version":"1.0.1","code":"1","display":"Medicare payer","userSelected":true}]},"beneficiary":{"reference":"Patient/db63909b-c60f-45fc-8160-f40808d1444d"},"payor":[{"reference":"Organization/d4ab073a-0c4b-4668-b641-c45a0f711707"}]},"request":{"method":"PUT","url":"Coverage/de6697d4-9859-4d43-b7e8-5b3f4ab265a4"}},{"fullUrl":"https://madie.cms.gov/Organization/d4ab073a-0c4b-4668-b641-c45a0f711707","resource":{"resourceType":"Organization","id":"d4ab073a-0c4b-4668-b641-c45a0f711707","meta":{"profile":["http://hl7.org/fhir/us/qicore/StructureDefinition/qicore-organization"]},"identifier":[{"use":"temp","system":"urn:oid:2.16.840.1.113883.4.4","value":"21-3259825"}],"active":true,"type":[{"coding":[{"system":"http://terminology.hl7.org/CodeSystem/organization-type","code":"pay","display":"Payer"}]}],"name":"Blue Cross Blue Shield of Texas","telecom":[{"system":"phone","value":"(+1) 972-766-6900"}],"address":[{"use":"billing","type":"postal","line":["P.O. Box 660044"],"city":"Dallas","state":"TX","postalCode":"75266-0044","country":"USA"}]},"request":{"method":"PUT","url":"Organization/d4ab073a-0c4b-4668-b641-c45a0f711707"}},{"fullUrl":"https://madie.cms.gov/Practitioner/d3875ad8-473d-4ded-a268-6d945eebfdf3","resource":{"resourceType":"Practitioner","id":"d3875ad8-473d-4ded-a268-6d945eebfdf3","meta":{"profile":["http://hl7.org/fhir/us/qicore/StructureDefinition/qicore-practitioner"]},"identifier":[{"system":"http://hl7.org/fhir/sid/us-npi","value":"123456"}],"name":[{"family":"Evil","prefix":["Dr"]}]},"request":{"method":"PUT","url":"Practitioner/d3875ad8-473d-4ded-a268-6d945eebfdf3"}},{"fullUrl":"https://madie.cms.gov/MeasureReport/02002ff6-2620-4e65-9966-69641e9e3b0c","resource":{"resourceType":"MeasureReport","id":"02002ff6-2620-4e65-9966-69641e9e3b0c","meta":{"profile":["http://hl7.org/fhir/us/cqfmeasures/StructureDefinition/test-case-cqfm"]},"contained":[{"resourceType":"Parameters","id":"c02e3b6c-3aa0-4843-8c42-1253c9a0f4bd-parameters","parameter":[{"name":"subject","valueString":"db63909b-c60f-45fc-8160-f40808d1444d"}]}],"extension":[{"url":"http://hl7.org/fhir/us/cqfmeasures/StructureDefinition/cqfm-inputParameters","valueReference":{"reference":"#c02e3b6c-3aa0-4843-8c42-1253c9a0f4bd-parameters"}},{"url":"http://hl7.org/fhir/us/cqfmeasures/StructureDefinition/cqfm-testCaseDescription","valueMarkdown":"Enc is 365 days June 29- June 30 following year"}],"modifierExtension":[{"url":"http://hl7.org/fhir/us/cqfmeasures/StructureDefinition/cqfm-isTestCase","valueBoolean":true}],"status":"complete","type":"individual","measure":"https://madie.cms.gov/Measure/HybridHospitalWideMortalityFHIR","period":{"start":"2025-07-01","end":"2026-06-30"},"group":[{"population":[{"code":{"coding":[{"system":"http://terminology.hl7.org/CodeSystem/measure-population","code":"initial-population","display":"Initial Population"}]},"count":0}]}],"evaluatedResource":[{"reference":"Patient/db63909b-c60f-45fc-8160-f40808d1444d"},{"reference":"Encounter/dce967ae-c7e2-4929-89fd-1f3409d5ccc6"},{"reference":"Coverage/de6697d4-9859-4d43-b7e8-5b3f4ab265a4"},{"reference":"Organization/d4ab073a-0c4b-4668-b641-c45a0f711707"},{"reference":"Practitioner/d3875ad8-473d-4ded-a268-6d945eebfdf3"}]},"request":{"method":"PUT","url":"MeasureReport/02002ff6-2620-4e65-9966-69641e9e3b0c"}}]}