{"resourceType":"Bundle","id":"tests-76bc62ce-2a30-4b34-8685-c37a1d88afe8-bundle","type":"transaction","entry":[{"fullUrl":"https://madie.cms.gov/Patient/76bc62ce-2a30-4b34-8685-c37a1d88afe8","resource":{"resourceType":"Patient","id":"76bc62ce-2a30-4b34-8685-c37a1d88afe8","meta":{"profile":["http://hl7.org/fhir/us/qicore/StructureDefinition/qicore-patient"]},"text":{"status":"generated","div":"<div xmlns=\"http://www.w3.org/1999/xhtml\"><div class=\"hapiHeaderText\">EncStartsBeforeMP <b>IPFAIL </b></div><table class=\"hapiPropertyTable\"><tbody><tr><td>Identifier</td><td>5357cf1fa2383d9a0e8f3ff5d42eaa9911ad131ad62a639f75e98789c2c8866b</td></tr><tr><td>Date of birth</td><td><span>15 June 1956</span></td></tr></tbody></table></div>"},"extension":[{"url":"http://hl7.org/fhir/us/core/StructureDefinition/us-core-race","extension":[{"url":"ombCategory","valueCoding":{"system":"urn:oid:2.16.840.1.113883.6.238","code":"1002-5","display":"American Indian or Alaska Native","userSelected":true}},{"url":"text","valueString":"American Indian or Alaska Native"}]},{"url":"http://hl7.org/fhir/us/core/StructureDefinition/us-core-ethnicity","extension":[{"url":"ombCategory","valueCoding":{"system":"urn:oid:2.16.840.1.113883.6.238","code":"2186-5","display":"Not Hispanic or Latino","userSelected":true}},{"url":"text","valueString":"Not Hispanic or Latino"}]}],"identifier":[{"type":{"coding":[{"system":"http://terminology.hl7.org/CodeSystem/v2-0203","code":"MR"}]},"system":"https://bonnie-fhir.healthit.gov/","value":"63ec096eccb3770120fea3a7"}],"active":true,"name":[{"use":"usual","family":"IPPFail","given":["EncounterEndsAfterMP"]}],"gender":"male","birthDate":"1956-06-15"},"request":{"method":"PUT","url":"Patient/76bc62ce-2a30-4b34-8685-c37a1d88afe8"}},{"fullUrl":"https://madie.cms.gov/Encounter/e941566f-469b-4002-a7f6-cd1cab0607ff","resource":{"resourceType":"Encounter","id":"e941566f-469b-4002-a7f6-cd1cab0607ff","meta":{"profile":["http://hl7.org/fhir/us/qicore/StructureDefinition/qicore-encounter"]},"status":"finished","class":{"system":"http://terminology.hl7.org/CodeSystem/v3-ActCode","code":"IMP","display":"inpatient encounter","userSelected":true},"type":[{"coding":[{"system":"http://snomed.info/sct","code":"32485007","display":"Hospital admission (procedure)"}]}],"subject":{"reference":"Patient/76bc62ce-2a30-4b34-8685-c37a1d88afe8"},"period":{"start":"2025-12-30T08:00:00.000Z","end":"2026-07-01T11:59:00.000Z"},"length":{"value":5,"unit":"days"}},"request":{"method":"PUT","url":"Encounter/e941566f-469b-4002-a7f6-cd1cab0607ff"}},{"fullUrl":"https://madie.cms.gov/Coverage/fae8e92d-5ee1-4736-b9cb-74e8975c536a","resource":{"resourceType":"Coverage","id":"fae8e92d-5ee1-4736-b9cb-74e8975c536a","meta":{"profile":["http://hl7.org/fhir/us/qicore/StructureDefinition/qicore-coverage"]},"status":"active","type":{"coding":[{"system":"https://nahdo.org/sopt","version":"1.0.1","code":"1","display":"Medicare payer","userSelected":true}]},"beneficiary":{"reference":"Patient/76bc62ce-2a30-4b34-8685-c37a1d88afe8"},"period":{"start":"2025-01-01T06:00:00.000Z","end":"2026-12-31T11:06:01.000Z"},"payor":[{"reference":"Organization/1c6892cb-1aac-4b6e-a4f7-c79c37cc54e3"}]},"request":{"method":"PUT","url":"Coverage/fae8e92d-5ee1-4736-b9cb-74e8975c536a"}},{"fullUrl":"https://madie.cms.gov/Organization/1c6892cb-1aac-4b6e-a4f7-c79c37cc54e3","resource":{"resourceType":"Organization","id":"1c6892cb-1aac-4b6e-a4f7-c79c37cc54e3","meta":{"profile":["http://hl7.org/fhir/us/qicore/StructureDefinition/qicore-organization"]},"identifier":[{"use":"temp","system":"urn:oid:2.16.840.1.113883.4.4","value":"21-3259825"}],"active":true,"type":[{"coding":[{"system":"http://terminology.hl7.org/CodeSystem/organization-type","code":"pay","display":"Payer"}]}],"name":"Blue Cross Blue Shield of Texas","telecom":[{"system":"phone","value":"(+1) 972-766-6900"}],"address":[{"use":"billing","type":"postal","line":["P.O. Box 660044"],"city":"Dallas","state":"TX","postalCode":"75266-0044","country":"USA"}]},"request":{"method":"PUT","url":"Organization/1c6892cb-1aac-4b6e-a4f7-c79c37cc54e3"}},{"fullUrl":"https://madie.cms.gov/Practitioner/914f422c-2c0a-465f-bdbf-3b0ed438e982","resource":{"resourceType":"Practitioner","id":"914f422c-2c0a-465f-bdbf-3b0ed438e982","meta":{"profile":["http://hl7.org/fhir/us/qicore/StructureDefinition/qicore-practitioner"]},"identifier":[{"system":"http://hl7.org/fhir/sid/us-npi","value":"123456"}],"name":[{"family":"Evil","prefix":["Dr"]}]},"request":{"method":"PUT","url":"Practitioner/914f422c-2c0a-465f-bdbf-3b0ed438e982"}},{"fullUrl":"https://madie.cms.gov/MeasureReport/e5c5f585-d7b4-4a74-98ac-3a1ea3189a43","resource":{"resourceType":"MeasureReport","id":"e5c5f585-d7b4-4a74-98ac-3a1ea3189a43","meta":{"profile":["http://hl7.org/fhir/us/cqfmeasures/StructureDefinition/test-case-cqfm"]},"contained":[{"resourceType":"Parameters","id":"d24252bf-55df-4fc1-8ac8-dccd70791ec3-parameters","parameter":[{"name":"subject","valueString":"76bc62ce-2a30-4b34-8685-c37a1d88afe8"}]}],"extension":[{"url":"http://hl7.org/fhir/us/cqfmeasures/StructureDefinition/cqfm-inputParameters","valueReference":{"reference":"#d24252bf-55df-4fc1-8ac8-dccd70791ec3-parameters"}},{"url":"http://hl7.org/fhir/us/cqfmeasures/StructureDefinition/cqfm-testCaseDescription","valueMarkdown":"Encounter starts last day of MP (6/30) but does not end until next MP (7/5)"}],"modifierExtension":[{"url":"http://hl7.org/fhir/us/cqfmeasures/StructureDefinition/cqfm-isTestCase","valueBoolean":true}],"status":"complete","type":"individual","measure":"https://madie.cms.gov/Measure/HybridHospitalWideMortalityFHIR","period":{"start":"2025-07-01","end":"2026-06-30"},"group":[{"population":[{"code":{"coding":[{"system":"http://terminology.hl7.org/CodeSystem/measure-population","code":"initial-population","display":"Initial Population"}]},"count":0}]}],"evaluatedResource":[{"reference":"Patient/76bc62ce-2a30-4b34-8685-c37a1d88afe8"},{"reference":"Encounter/e941566f-469b-4002-a7f6-cd1cab0607ff"},{"reference":"Coverage/fae8e92d-5ee1-4736-b9cb-74e8975c536a"},{"reference":"Organization/1c6892cb-1aac-4b6e-a4f7-c79c37cc54e3"},{"reference":"Practitioner/914f422c-2c0a-465f-bdbf-3b0ed438e982"}]},"request":{"method":"PUT","url":"MeasureReport/e5c5f585-d7b4-4a74-98ac-3a1ea3189a43"}}]}