{"resourceType":"Bundle","id":"tests-a485246d-5d44-4e17-ae78-ec1a0ad4069e-bundle","type":"transaction","entry":[{"fullUrl":"https://madie.cms.gov/Patient/a485246d-5d44-4e17-ae78-ec1a0ad4069e","resource":{"resourceType":"Patient","id":"a485246d-5d44-4e17-ae78-ec1a0ad4069e","meta":{"profile":["http://hl7.org/fhir/us/qicore/StructureDefinition/qicore-patient"]},"text":{"status":"generated","div":"<div xmlns=\"http://www.w3.org/1999/xhtml\"><div class=\"hapiHeaderText\">LT24beforeAndGT2after_relevantPeriod_endonly <b>SBPPASS </b></div><table class=\"hapiPropertyTable\"><tbody><tr><td>Identifier</td><td>ff71e6df6fc1b78e69460d357884fa81714d2acf91ffda248ad3470e982fcab8</td></tr><tr><td>Date of birth</td><td><span>15 June 1956</span></td></tr></tbody></table></div>"},"extension":[{"url":"http://hl7.org/fhir/us/core/StructureDefinition/us-core-race","extension":[{"url":"ombCategory","valueCoding":{"system":"urn:oid:2.16.840.1.113883.6.238","code":"1002-5","display":"American Indian or Alaska Native","userSelected":true}},{"url":"text","valueString":"American Indian or Alaska Native"}]},{"url":"http://hl7.org/fhir/us/core/StructureDefinition/us-core-ethnicity","extension":[{"url":"ombCategory","valueCoding":{"system":"urn:oid:2.16.840.1.113883.6.238","code":"2186-5","display":"Not Hispanic or Latino","userSelected":true}},{"url":"text","valueString":"Not Hispanic or Latino"}]}],"identifier":[{"type":{"coding":[{"system":"http://terminology.hl7.org/CodeSystem/v2-0203","code":"MR"}]},"system":"https://bonnie-fhir.healthit.gov/","value":"63ec0965ccb3770120fe9b6a"}],"active":true,"name":[{"use":"usual","family":"SystolicBPPass","given":["2HoursAfterStartOfAdmit"]}],"gender":"male","birthDate":"1961-06-29"},"request":{"method":"PUT","url":"Patient/a485246d-5d44-4e17-ae78-ec1a0ad4069e"}},{"fullUrl":"https://madie.cms.gov/Encounter/b5518abd-82d2-4aab-92dc-3d26ec16cc19","resource":{"resourceType":"Encounter","id":"b5518abd-82d2-4aab-92dc-3d26ec16cc19","meta":{"profile":["http://hl7.org/fhir/us/qicore/StructureDefinition/qicore-encounter"]},"status":"finished","class":{"system":"http://terminology.hl7.org/CodeSystem/v3-ActCode","code":"IMP","display":"inpatient encounter","userSelected":true},"type":[{"coding":[{"system":"http://snomed.info/sct","code":"183452005"}]}],"subject":{"reference":"Patient/a485246d-5d44-4e17-ae78-ec1a0ad4069e"},"period":{"start":"2026-06-29T12:01:00.000+00:00","end":"2026-06-30T23:59:00.000+00:00"},"length":{"value":1,"unit":"days"}},"request":{"method":"PUT","url":"Encounter/b5518abd-82d2-4aab-92dc-3d26ec16cc19"}},{"fullUrl":"https://madie.cms.gov/Coverage/ff606e7f-4df1-4964-9c23-94dd5406fdcc","resource":{"resourceType":"Coverage","id":"ff606e7f-4df1-4964-9c23-94dd5406fdcc","meta":{"profile":["http://hl7.org/fhir/us/qicore/StructureDefinition/qicore-coverage"]},"status":"active","type":{"coding":[{"system":"https://nahdo.org/sopt","version":"1.0.1","code":"1","display":"Medicare payer","userSelected":true}]},"beneficiary":{"reference":"Patient/a485246d-5d44-4e17-ae78-ec1a0ad4069e"},"period":{"start":"2025-01-01T08:00:00.000+00:00","end":"2026-12-31T08:15:00.000+00:00"},"payor":[{"reference":"Organization/2b9c68fc-70cf-4e66-8ab6-e984779a3eaf"}]},"request":{"method":"PUT","url":"Coverage/ff606e7f-4df1-4964-9c23-94dd5406fdcc"}},{"fullUrl":"https://madie.cms.gov/Observation/08c2c31a-1826-4387-bed1-ba160ad7552b","resource":{"resourceType":"Observation","id":"08c2c31a-1826-4387-bed1-ba160ad7552b","meta":{"profile":["http://hl7.org/fhir/StructureDefinition/bp"]},"status":"final","category":[{"coding":[{"system":"http://terminology.hl7.org/CodeSystem/observation-category","code":"vital-signs","display":"Vital Signs"}],"text":"Vital Signs"}],"code":{"coding":[{"system":"http://loinc.org","code":"85354-9","display":"Blood pressure panel"}]},"subject":{"reference":"Patient/a485246d-5d44-4e17-ae78-ec1a0ad4069e"},"effectiveDateTime":"2026-06-29T10:05:00.000Z","component":[{"code":{"coding":[{"system":"http://loinc.org","code":"8480-6","display":"Systolic blood pressure"}]},"valueQuantity":{"value":131,"unit":"mmHg","system":"http://unitsofmeasure.org","code":"mm[Hg]"}},{"code":{"coding":[{"system":"http://loinc.org","code":"8462-4","display":"Diastolic blood pressure"}]},"valueQuantity":{"value":80,"unit":"mmHg","system":"http://unitsofmeasure.org","code":"mm[Hg]"}}]},"request":{"method":"PUT","url":"Observation/08c2c31a-1826-4387-bed1-ba160ad7552b"}},{"fullUrl":"https://madie.cms.gov/Organization/2b9c68fc-70cf-4e66-8ab6-e984779a3eaf","resource":{"resourceType":"Organization","id":"2b9c68fc-70cf-4e66-8ab6-e984779a3eaf","meta":{"profile":["http://hl7.org/fhir/us/qicore/StructureDefinition/qicore-organization"]},"identifier":[{"use":"temp","system":"urn:oid:2.16.840.1.113883.4.4","value":"21-3259825"}],"active":true,"type":[{"coding":[{"system":"http://terminology.hl7.org/CodeSystem/organization-type","code":"pay","display":"Payer"}]}],"name":"Blue Cross Blue Shield of Texas","telecom":[{"system":"phone","value":"(+1) 972-766-6900"}],"address":[{"use":"billing","type":"postal","line":["P.O. Box 660044"],"city":"Dallas","state":"TX","postalCode":"75266-0044","country":"USA"}]},"request":{"method":"PUT","url":"Organization/2b9c68fc-70cf-4e66-8ab6-e984779a3eaf"}},{"fullUrl":"https://madie.cms.gov/Practitioner/0104f4a4-3fff-446b-8234-8458e3c6d05d","resource":{"resourceType":"Practitioner","id":"0104f4a4-3fff-446b-8234-8458e3c6d05d","meta":{"profile":["http://hl7.org/fhir/us/qicore/StructureDefinition/qicore-practitioner"]},"identifier":[{"system":"http://hl7.org/fhir/sid/us-npi","value":"123456"}],"name":[{"family":"Evil","prefix":["Dr"]}]},"request":{"method":"PUT","url":"Practitioner/0104f4a4-3fff-446b-8234-8458e3c6d05d"}},{"fullUrl":"https://madie.cms.gov/MeasureReport/248b47aa-1825-4a6d-a627-812cd6c7cd44","resource":{"resourceType":"MeasureReport","id":"248b47aa-1825-4a6d-a627-812cd6c7cd44","meta":{"profile":["http://hl7.org/fhir/us/cqfmeasures/StructureDefinition/test-case-cqfm"]},"contained":[{"resourceType":"Parameters","id":"b0afd416-c67d-49b3-b458-b4a712abce3f-parameters","parameter":[{"name":"subject","valueString":"a485246d-5d44-4e17-ae78-ec1a0ad4069e"}]}],"extension":[{"url":"http://hl7.org/fhir/us/cqfmeasures/StructureDefinition/cqfm-inputParameters","valueReference":{"reference":"#b0afd416-c67d-49b3-b458-b4a712abce3f-parameters"}},{"url":"http://hl7.org/fhir/us/cqfmeasures/StructureDefinition/cqfm-testCaseDescription","valueMarkdown":"Enc ends last day of MP (6/30), age 65 on day of enc. Systolic BP evaluated 2 hours after start of inpatient and morning of discharge"}],"modifierExtension":[{"url":"http://hl7.org/fhir/us/cqfmeasures/StructureDefinition/cqfm-isTestCase","valueBoolean":true}],"status":"complete","type":"individual","measure":"https://madie.cms.gov/Measure/HybridHospitalWideMortalityFHIR","period":{"start":"2025-07-01","end":"2026-06-30"},"group":[{"population":[{"code":{"coding":[{"system":"http://terminology.hl7.org/CodeSystem/measure-population","code":"initial-population","display":"Initial Population"}]},"count":1}]}],"evaluatedResource":[{"reference":"Patient/a485246d-5d44-4e17-ae78-ec1a0ad4069e"},{"reference":"Encounter/b5518abd-82d2-4aab-92dc-3d26ec16cc19"},{"reference":"Coverage/ff606e7f-4df1-4964-9c23-94dd5406fdcc"},{"reference":"Observation/08c2c31a-1826-4387-bed1-ba160ad7552b"},{"reference":"Organization/2b9c68fc-70cf-4e66-8ab6-e984779a3eaf"},{"reference":"Practitioner/0104f4a4-3fff-446b-8234-8458e3c6d05d"}]},"request":{"method":"PUT","url":"MeasureReport/248b47aa-1825-4a6d-a627-812cd6c7cd44"}}]}