{
  "resourceType": "Bundle",
  "id": "633b3f9f0968f80122503cdc",
  "type": "transaction",
  "entry": [
    {
      "fullUrl": "https://madie.cms.gov/Patient/35c541b3-b513-4278-bb0d-2ac1d33e07b6",
      "resource": {
        "resourceType": "Patient",
        "id": "35c541b3-b513-4278-bb0d-2ac1d33e07b6",
        "meta": {
          "profile": [
            "http://hl7.org/fhir/us/qicore/StructureDefinition/qicore-patient"
          ]
        },
        "text": {
          "status": "generated",
          "div": "<div xmlns=\"http://www.w3.org/1999/xhtml\"><div class=\"hapiHeaderText\">LastAssPrfEGARelvTm_24Hr01Min00Sec_B4LastTmDELRsltDtTime <b>DENOMFAIL </b></div><table class=\"hapiPropertyTable\"><tbody><tr><td>Date of birth</td><td><span>01 February 2004</span></td></tr></tbody></table></div>"
        },
        "extension": [
          {
            "url": "http://hl7.org/fhir/us/core/StructureDefinition/us-core-race",
            "extension": [
              {
                "url": "ombCategory",
                "valueCoding": {
                  "system": "urn:oid:2.16.840.1.113883.6.238",
                  "code": "1002-5",
                  "display": "American Indian or Alaska Native",
                  "userSelected": true
                }
              },
              {
                "url": "text",
                "valueString": "American Indian or Alaska Native"
              }
            ]
          },
          {
            "url": "http://hl7.org/fhir/us/core/StructureDefinition/us-core-ethnicity",
            "extension": [
              {
                "url": "ombCategory",
                "valueCoding": {
                  "system": "urn:oid:2.16.840.1.113883.6.238",
                  "code": "2135-2",
                  "display": "Hispanic or Latino",
                  "userSelected": true
                }
              },
              {
                "url": "text",
                "valueString": "Hispanic or Latino"
              }
            ]
          }
        ],
        "identifier": [
          {
            "type": {
              "coding": [
                {
                  "system": "http://terminology.hl7.org/CodeSystem/v2-0203",
                  "code": "MR"
                }
              ]
            },
            "system": "https://bonnie-fhir.healthit.gov/",
            "value": "633b3f9f0968f80122503cdc"
          }
        ],
        "active": true,
        "name": [
          {
            "use": "usual",
            "family": "DENOMFail",
            "given": [
              "LastAssPrfEGARelvTm_24Hr01Min00Sec_B4LastTmDELRsltDtTime"
            ]
          }
        ],
        "gender": "female",
        "birthDate": "2004-02-01"
      },
      "request": {
        "method": "PUT",
        "url": "Patient/35c541b3-b513-4278-bb0d-2ac1d33e07b6"
      }
    },
    {
      "fullUrl": "https://madie.cms.gov/Observation/18dab4e7-49ea-49eb-8cf0-fb85673edc5b",
      "resource": {
        "resourceType": "Observation",
        "id": "18dab4e7-49ea-49eb-8cf0-fb85673edc5b",
        "meta": {
          "profile": [
            "http://hl7.org/fhir/us/qicore/StructureDefinition/qicore-observation"
          ]
        },
        "status": "final",
        "category": [
          {
            "coding": [
              {
                "system": "http://terminology.hl7.org/CodeSystem/observation-category",
                "code": "exam",
                "display": "exam",
                "userSelected": true
              }
            ]
          }
        ],
        "code": {
          "coding": [
            {
              "system": "http://loinc.org",
              "code": "93857-1"
            }
          ]
        },
        "subject": {
          "reference": "Patient/35c541b3-b513-4278-bb0d-2ac1d33e07b6"
        },
        "effectiveDateTime": "2024-02-01T08:00:00.000+00:00",
        "valueDateTime": "2024-02-01T08:00:00+00:00"
      },
      "request": {
        "method": "PUT",
        "url": "Observation/18dab4e7-49ea-49eb-8cf0-fb85673edc5b"
      }
    },
    {
      "fullUrl": "https://madie.cms.gov/Observation/4d545914-d719-4ec8-b124-dc081efd954f",
      "resource": {
        "resourceType": "Observation",
        "id": "4d545914-d719-4ec8-b124-dc081efd954f",
        "meta": {
          "profile": [
            "http://hl7.org/fhir/us/qicore/StructureDefinition/qicore-observation"
          ]
        },
        "status": "final",
        "category": [
          {
            "coding": [
              {
                "system": "http://terminology.hl7.org/CodeSystem/observation-category",
                "code": "exam",
                "display": "exam",
                "userSelected": true
              }
            ]
          }
        ],
        "code": {
          "coding": [
            {
              "system": "http://loinc.org",
              "code": "11884-4"
            }
          ]
        },
        "subject": {
          "reference": "Patient/35c541b3-b513-4278-bb0d-2ac1d33e07b6"
        },
        "effectiveDateTime": "2024-01-31T07:59:00.000+00:00",
        "valueQuantity": {
          "value": 20,
          "unit": "wk"
        }
      },
      "request": {
        "method": "PUT",
        "url": "Observation/4d545914-d719-4ec8-b124-dc081efd954f"
      }
    },
    {
      "fullUrl": "https://madie.cms.gov/Encounter/1a266640-1de2-4a3c-8fe5-5ab9dc9088fe",
      "resource": {
        "resourceType": "Encounter",
        "id": "1a266640-1de2-4a3c-8fe5-5ab9dc9088fe",
        "meta": {
          "profile": [
            "http://hl7.org/fhir/us/qicore/StructureDefinition/qicore-encounter"
          ]
        },
        "status": "finished",
        "class": {
          "system": "http://terminology.hl7.org/CodeSystem/v3-ActCode",
          "code": "IMP",
          "display": "inpatient encounter"
        },
        "type": [
          {
            "coding": [
              {
                "system": "http://snomed.info/sct",
                "code": "183452005"
              }
            ]
          }
        ],
        "subject": {
          "reference": "Patient/35c541b3-b513-4278-bb0d-2ac1d33e07b6"
        },
        "period": {
          "start": "2024-02-01T08:00:00.000Z",
          "end": "2024-02-05T08:15:00.000Z"
        }
      },
      "request": {
        "method": "PUT",
        "url": "Encounter/1a266640-1de2-4a3c-8fe5-5ab9dc9088fe"
      }
    },
    {
      "fullUrl": "https://madie.cms.gov/Coverage/974e15d2-67b0-4f5f-8d89-9e1cee587fe7",
      "resource": {
        "resourceType": "Coverage",
        "id": "974e15d2-67b0-4f5f-8d89-9e1cee587fe7",
        "status": "active",
        "beneficiary": {
          "reference": "Patient/35c541b3-b513-4278-bb0d-2ac1d33e07b6"
        },
        "period": {
          "start": "2004-02-01T08:00:00.000Z"
        },
        "payor": [
          {
            "reference": "Organization/3fe6fcf4-f3b2-434e-886e-8dbcde21ac78"
          }
        ]
      },
      "request": {
        "method": "PUT",
        "url": "Coverage/974e15d2-67b0-4f5f-8d89-9e1cee587fe7"
      }
    },
    {
      "fullUrl": "https://madie.cms.gov/Procedure/c9b4c87c-34e9-4ce7-a404-8f2819c9a49e",
      "resource": {
        "resourceType": "Procedure",
        "id": "c9b4c87c-34e9-4ce7-a404-8f2819c9a49e",
        "meta": {
          "profile": [
            "http://hl7.org/fhir/us/qicore/StructureDefinition/qicore-procedure"
          ]
        },
        "extension": [
          {
            "url": "http://hl7.org/fhir/us/qicore/StructureDefinition/qicore-recorded",
            "valueDateTime": "2013-04-05T09:35:00-04:00"
          }
        ],
        "status": "completed",
        "code": {
          "coding": [
            {
              "system": "http://snomed.info/sct",
              "code": "10745001"
            }
          ]
        },
        "subject": {
          "reference": "Patient/35c541b3-b513-4278-bb0d-2ac1d33e07b6"
        },
        "performedPeriod": {
          "start": "2024-02-01T08:00:00.000Z",
          "end": "2024-02-05T08:15:00.000Z"
        }
      },
      "request": {
        "method": "PUT",
        "url": "Procedure/c9b4c87c-34e9-4ce7-a404-8f2819c9a49e"
      }
    },
    {
      "fullUrl": "https://madie.cms.gov/Organization/3fe6fcf4-f3b2-434e-886e-8dbcde21ac78",
      "resource": {
        "resourceType": "Organization",
        "id": "3fe6fcf4-f3b2-434e-886e-8dbcde21ac78",
        "meta": {
          "profile": [
            "http://hl7.org/fhir/us/qicore/StructureDefinition/qicore-organization"
          ]
        },
        "identifier": [
          {
            "use": "temp",
            "system": "urn:oid:2.16.840.1.113883.4.4",
            "value": "21-3259825"
          }
        ],
        "active": true,
        "type": [
          {
            "coding": [
              {
                "system": "http://terminology.hl7.org/CodeSystem/organization-type",
                "code": "pay",
                "display": "Payer"
              }
            ]
          }
        ],
        "name": "Blue Cross Blue Shield of Texas",
        "telecom": [
          {
            "system": "phone",
            "value": "(+1) 972-766-6900"
          }
        ],
        "address": [
          {
            "use": "billing",
            "type": "postal",
            "line": [
              "P.O. Box 660044"
            ],
            "city": "Dallas",
            "state": "TX",
            "postalCode": "75266-0044",
            "country": "USA"
          }
        ]
      },
      "request": {
        "method": "PUT",
        "url": "Organization/3fe6fcf4-f3b2-434e-886e-8dbcde21ac78"
      }
    },
    {
      "fullUrl": "https://madie.cms.gov/Practitioner/83bbf0fe-3bf8-40b8-a6ad-b3400bd7d39b",
      "resource": {
        "resourceType": "Practitioner",
        "id": "83bbf0fe-3bf8-40b8-a6ad-b3400bd7d39b",
        "identifier": [
          {
            "system": "http://hl7.org/fhir/sid/us-npi",
            "value": "123456"
          }
        ],
        "name": [
          {
            "family": "Evil",
            "prefix": [
              "Dr"
            ]
          }
        ]
      },
      "request": {
        "method": "PUT",
        "url": "Practitioner/83bbf0fe-3bf8-40b8-a6ad-b3400bd7d39b"
      }
    },
    {
      "fullUrl": "https://madie.cms.gov/MeasureReport/58d860d8-6989-40c1-92c2-4f13d741c252",
      "resource": {
        "resourceType": "MeasureReport",
        "id": "58d860d8-6989-40c1-92c2-4f13d741c252",
        "meta": {
          "profile": [
            "http://hl7.org/fhir/us/cqfmeasures/StructureDefinition/test-case-cqfm"
          ]
        },
        "contained": [
          {
            "resourceType": "Parameters",
            "id": "03308134-5ed1-4385-a32d-6beef05ca755-parameters",
            "parameter": [
              {
                "name": "subject",
                "valueString": "35c541b3-b513-4278-bb0d-2ac1d33e07b6"
              }
            ]
          }
        ],
        "extension": [
          {
            "url": "http://hl7.org/fhir/us/cqfmeasures/StructureDefinition/cqfm-inputParameters",
            "valueReference": {
              "reference": "#03308134-5ed1-4385-a32d-6beef05ca755-parameters"
            }
          },
          {
            "url": "http://hl7.org/fhir/us/cqfmeasures/StructureDefinition/cqfm-testCaseDescription",
            "valueMarkdown": "Estimated Gestational Age Relevant Date Time is 24 hours 1 minute before Time of Delivery (result)\n"
          }
        ],
        "modifierExtension": [
          {
            "url": "http://hl7.org/fhir/us/cqfmeasures/StructureDefinition/cqfm-isTestCase",
            "valueBoolean": true
          }
        ],
        "status": "complete",
        "type": "individual",
        "measure": "https://madie.cms.gov/Measure/SevereObstetricComplicationsFHIR",
        "period": {
          "start": "2024-01-01",
          "end": "2024-12-31"
        },
        "group": [
          {
            "population": [
              {
                "code": {
                  "coding": [
                    {
                      "system": "http://terminology.hl7.org/CodeSystem/measure-population",
                      "code": "initial-population",
                      "display": "Initial Population"
                    }
                  ]
                },
                "count": 1
              },
              {
                "code": {
                  "coding": [
                    {
                      "system": "http://terminology.hl7.org/CodeSystem/measure-population",
                      "code": "denominator",
                      "display": "Denominator"
                    }
                  ]
                },
                "count": 0
              },
              {
                "code": {
                  "coding": [
                    {
                      "system": "http://terminology.hl7.org/CodeSystem/measure-population",
                      "code": "denominator-exclusion",
                      "display": "Denominator Exclusion"
                    }
                  ]
                },
                "count": 0
              },
              {
                "code": {
                  "coding": [
                    {
                      "system": "http://terminology.hl7.org/CodeSystem/measure-population",
                      "code": "numerator",
                      "display": "Numerator"
                    }
                  ]
                },
                "count": 0
              }
            ]
          }
        ],
        "evaluatedResource": [
          {
            "reference": "Patient/35c541b3-b513-4278-bb0d-2ac1d33e07b6"
          },
          {
            "reference": "Observation/18dab4e7-49ea-49eb-8cf0-fb85673edc5b"
          },
          {
            "reference": "Observation/4d545914-d719-4ec8-b124-dc081efd954f"
          },
          {
            "reference": "Encounter/1a266640-1de2-4a3c-8fe5-5ab9dc9088fe"
          },
          {
            "reference": "Coverage/974e15d2-67b0-4f5f-8d89-9e1cee587fe7"
          },
          {
            "reference": "Procedure/c9b4c87c-34e9-4ce7-a404-8f2819c9a49e"
          },
          {
            "reference": "Organization/3fe6fcf4-f3b2-434e-886e-8dbcde21ac78"
          },
          {
            "reference": "Practitioner/83bbf0fe-3bf8-40b8-a6ad-b3400bd7d39b"
          }
        ]
      },
      "request": {
        "method": "PUT",
        "url": "MeasureReport/58d860d8-6989-40c1-92c2-4f13d741c252"
      }
    }
  ]
}