{
  "resourceType": "Bundle",
  "id": "633b3fa00968f80122503d15",
  "type": "transaction",
  "entry": [
    {
      "fullUrl": "https://madie.cms.gov/Patient/6b9ee7da-468e-4501-a633-5f813e00a5c5",
      "resource": {
        "resourceType": "Patient",
        "id": "6b9ee7da-468e-4501-a633-5f813e00a5c5",
        "meta": {
          "profile": [
            "http://hl7.org/fhir/us/qicore/StructureDefinition/qicore-patient"
          ]
        },
        "text": {
          "status": "generated",
          "div": "<div xmlns=\"http://www.w3.org/1999/xhtml\"><div class=\"hapiHeaderText\">DelProcRelDtTmEQOBSStart <b>IPPASS </b></div><table class=\"hapiPropertyTable\"><tbody><tr><td>Date of birth</td><td><span>31 January 2004</span></td></tr></tbody></table></div>"
        },
        "extension": [
          {
            "url": "http://hl7.org/fhir/us/core/StructureDefinition/us-core-race",
            "extension": [
              {
                "url": "ombCategory",
                "valueCoding": {
                  "system": "urn:oid:2.16.840.1.113883.6.238",
                  "code": "1002-5",
                  "display": "American Indian or Alaska Native",
                  "userSelected": true
                }
              },
              {
                "url": "text",
                "valueString": "American Indian or Alaska Native"
              }
            ]
          },
          {
            "url": "http://hl7.org/fhir/us/core/StructureDefinition/us-core-ethnicity",
            "extension": [
              {
                "url": "ombCategory",
                "valueCoding": {
                  "system": "urn:oid:2.16.840.1.113883.6.238",
                  "code": "2135-2",
                  "display": "Hispanic or Latino",
                  "userSelected": true
                }
              },
              {
                "url": "text",
                "valueString": "Hispanic or Latino"
              }
            ]
          }
        ],
        "identifier": [
          {
            "type": {
              "coding": [
                {
                  "system": "http://terminology.hl7.org/CodeSystem/v2-0203",
                  "code": "MR"
                }
              ]
            },
            "system": "https://bonnie-fhir.healthit.gov/",
            "value": "633b3fa00968f80122503d15"
          }
        ],
        "active": true,
        "name": [
          {
            "use": "usual",
            "family": "IPPass",
            "given": [
              "DelProcRelDtTmEQOBSStart"
            ]
          }
        ],
        "gender": "female",
        "birthDate": "2004-01-31"
      },
      "request": {
        "method": "PUT",
        "url": "Patient/6b9ee7da-468e-4501-a633-5f813e00a5c5"
      }
    },
    {
      "fullUrl": "https://madie.cms.gov/Encounter/938d99d0-9c95-4a94-b21b-094216fe19c3",
      "resource": {
        "resourceType": "Encounter",
        "id": "938d99d0-9c95-4a94-b21b-094216fe19c3",
        "meta": {
          "profile": [
            "http://hl7.org/fhir/us/qicore/StructureDefinition/qicore-encounter"
          ]
        },
        "status": "finished",
        "class": {
          "system": "http://terminology.hl7.org/CodeSystem/v3-ActCode",
          "code": "IMP",
          "display": "inpatient encounter"
        },
        "type": [
          {
            "coding": [
              {
                "system": "http://snomed.info/sct",
                "code": "183452005"
              }
            ]
          }
        ],
        "subject": {
          "reference": "Patient/6b9ee7da-468e-4501-a633-5f813e00a5c5"
        },
        "period": {
          "start": "2024-02-01T09:00:00.000Z",
          "end": "2024-02-05T08:15:00.000Z"
        }
      },
      "request": {
        "method": "PUT",
        "url": "Encounter/938d99d0-9c95-4a94-b21b-094216fe19c3"
      }
    },
    {
      "fullUrl": "https://madie.cms.gov/Encounter/3eb8c6a7-b05a-449e-acc3-d85af6a42bda",
      "resource": {
        "resourceType": "Encounter",
        "id": "3eb8c6a7-b05a-449e-acc3-d85af6a42bda",
        "meta": {
          "profile": [
            "http://hl7.org/fhir/us/qicore/StructureDefinition/qicore-encounter"
          ]
        },
        "status": "finished",
        "class": {
          "system": "http://terminology.hl7.org/CodeSystem/v3-ActCode",
          "code": "IMP",
          "display": "inpatient encounter"
        },
        "type": [
          {
            "coding": [
              {
                "system": "http://snomed.info/sct",
                "code": "448951000124107"
              }
            ]
          }
        ],
        "subject": {
          "reference": "Patient/6b9ee7da-468e-4501-a633-5f813e00a5c5"
        },
        "period": {
          "start": "2024-02-01T08:00:00.000Z",
          "end": "2024-02-01T08:59:00.000Z"
        }
      },
      "request": {
        "method": "PUT",
        "url": "Encounter/3eb8c6a7-b05a-449e-acc3-d85af6a42bda"
      }
    },
    {
      "fullUrl": "https://madie.cms.gov/Encounter/2ae195d3-414d-4117-8c10-381d9b4e51b6",
      "resource": {
        "resourceType": "Encounter",
        "id": "2ae195d3-414d-4117-8c10-381d9b4e51b6",
        "meta": {
          "profile": [
            "http://hl7.org/fhir/us/qicore/StructureDefinition/qicore-encounter"
          ]
        },
        "status": "finished",
        "class": {
          "system": "http://terminology.hl7.org/CodeSystem/v3-ActCode",
          "code": "IMP",
          "display": "inpatient encounter"
        },
        "type": [
          {
            "coding": [
              {
                "system": "http://snomed.info/sct",
                "code": "4525004"
              }
            ]
          }
        ],
        "subject": {
          "reference": "Patient/6b9ee7da-468e-4501-a633-5f813e00a5c5"
        },
        "period": {
          "start": "2024-02-01T07:00:00.000Z",
          "end": "2024-02-01T07:59:00.000Z"
        }
      },
      "request": {
        "method": "PUT",
        "url": "Encounter/2ae195d3-414d-4117-8c10-381d9b4e51b6"
      }
    },
    {
      "fullUrl": "https://madie.cms.gov/Coverage/c15efc3b-3700-4bf9-8881-bdf7d2076bd3",
      "resource": {
        "resourceType": "Coverage",
        "id": "c15efc3b-3700-4bf9-8881-bdf7d2076bd3",
        "status": "active",
        "beneficiary": {
          "reference": "Patient/6b9ee7da-468e-4501-a633-5f813e00a5c5"
        },
        "period": {
          "start": "2004-01-31T01:00:00.000Z"
        },
        "payor": [
          {
            "reference": "Organization/7c029a19-3160-462c-9f61-a2b69465940f"
          }
        ]
      },
      "request": {
        "method": "PUT",
        "url": "Coverage/c15efc3b-3700-4bf9-8881-bdf7d2076bd3"
      }
    },
    {
      "fullUrl": "https://madie.cms.gov/Procedure/1954aa02-2209-4f1e-b093-39c67c6b7ac9",
      "resource": {
        "resourceType": "Procedure",
        "id": "1954aa02-2209-4f1e-b093-39c67c6b7ac9",
        "meta": {
          "profile": [
            "http://hl7.org/fhir/us/qicore/StructureDefinition/qicore-procedure"
          ]
        },
        "extension": [
          {
            "url": "http://hl7.org/fhir/us/qicore/StructureDefinition/qicore-recorded",
            "valueDateTime": "2013-04-05T09:35:00-04:00"
          }
        ],
        "status": "completed",
        "code": {
          "coding": [
            {
              "system": "http://snomed.info/sct",
              "code": "10745001"
            }
          ]
        },
        "subject": {
          "reference": "Patient/6b9ee7da-468e-4501-a633-5f813e00a5c5"
        },
        "performedDateTime": "2024-02-01T08:00:00.000+00:00"
      },
      "request": {
        "method": "PUT",
        "url": "Procedure/1954aa02-2209-4f1e-b093-39c67c6b7ac9"
      }
    },
    {
      "fullUrl": "https://madie.cms.gov/Organization/7c029a19-3160-462c-9f61-a2b69465940f",
      "resource": {
        "resourceType": "Organization",
        "id": "7c029a19-3160-462c-9f61-a2b69465940f",
        "meta": {
          "profile": [
            "http://hl7.org/fhir/us/qicore/StructureDefinition/qicore-organization"
          ]
        },
        "identifier": [
          {
            "use": "temp",
            "system": "urn:oid:2.16.840.1.113883.4.4",
            "value": "21-3259825"
          }
        ],
        "active": true,
        "type": [
          {
            "coding": [
              {
                "system": "http://terminology.hl7.org/CodeSystem/organization-type",
                "code": "pay",
                "display": "Payer"
              }
            ]
          }
        ],
        "name": "Blue Cross Blue Shield of Texas",
        "telecom": [
          {
            "system": "phone",
            "value": "(+1) 972-766-6900"
          }
        ],
        "address": [
          {
            "use": "billing",
            "type": "postal",
            "line": [
              "P.O. Box 660044"
            ],
            "city": "Dallas",
            "state": "TX",
            "postalCode": "75266-0044",
            "country": "USA"
          }
        ]
      },
      "request": {
        "method": "PUT",
        "url": "Organization/7c029a19-3160-462c-9f61-a2b69465940f"
      }
    },
    {
      "fullUrl": "https://madie.cms.gov/Practitioner/439dfa25-9495-42d7-a50e-ad30b42f939f",
      "resource": {
        "resourceType": "Practitioner",
        "id": "439dfa25-9495-42d7-a50e-ad30b42f939f",
        "identifier": [
          {
            "system": "http://hl7.org/fhir/sid/us-npi",
            "value": "123456"
          }
        ],
        "name": [
          {
            "family": "Evil",
            "prefix": [
              "Dr"
            ]
          }
        ]
      },
      "request": {
        "method": "PUT",
        "url": "Practitioner/439dfa25-9495-42d7-a50e-ad30b42f939f"
      }
    },
    {
      "fullUrl": "https://madie.cms.gov/MeasureReport/3d830e97-52e9-44d6-94f4-afd14961d7d7",
      "resource": {
        "resourceType": "MeasureReport",
        "id": "3d830e97-52e9-44d6-94f4-afd14961d7d7",
        "meta": {
          "profile": [
            "http://hl7.org/fhir/us/cqfmeasures/StructureDefinition/test-case-cqfm"
          ]
        },
        "contained": [
          {
            "resourceType": "Parameters",
            "id": "1f2ff536-790b-4a7d-81f1-ad14e65155ed-parameters",
            "parameter": [
              {
                "name": "subject",
                "valueString": "6b9ee7da-468e-4501-a633-5f813e00a5c5"
              }
            ]
          }
        ],
        "extension": [
          {
            "url": "http://hl7.org/fhir/us/cqfmeasures/StructureDefinition/cqfm-inputParameters",
            "valueReference": {
              "reference": "#1f2ff536-790b-4a7d-81f1-ad14e65155ed-parameters"
            }
          },
          {
            "url": "http://hl7.org/fhir/us/cqfmeasures/StructureDefinition/cqfm-testCaseDescription",
            "valueMarkdown": "Delivery Procedure rel date/time = OBS start.  ED/OBS/IP all meet global hospitalization criteria.\n"
          }
        ],
        "modifierExtension": [
          {
            "url": "http://hl7.org/fhir/us/cqfmeasures/StructureDefinition/cqfm-isTestCase",
            "valueBoolean": true
          }
        ],
        "status": "complete",
        "type": "individual",
        "measure": "https://madie.cms.gov/Measure/SevereObstetricComplicationsFHIR",
        "period": {
          "start": "2024-01-01",
          "end": "2024-12-31"
        },
        "group": [
          {
            "population": [
              {
                "code": {
                  "coding": [
                    {
                      "system": "http://terminology.hl7.org/CodeSystem/measure-population",
                      "code": "initial-population",
                      "display": "Initial Population"
                    }
                  ]
                },
                "count": 1
              },
              {
                "code": {
                  "coding": [
                    {
                      "system": "http://terminology.hl7.org/CodeSystem/measure-population",
                      "code": "denominator",
                      "display": "Denominator"
                    }
                  ]
                },
                "count": 0
              },
              {
                "code": {
                  "coding": [
                    {
                      "system": "http://terminology.hl7.org/CodeSystem/measure-population",
                      "code": "denominator-exclusion",
                      "display": "Denominator Exclusion"
                    }
                  ]
                },
                "count": 0
              },
              {
                "code": {
                  "coding": [
                    {
                      "system": "http://terminology.hl7.org/CodeSystem/measure-population",
                      "code": "numerator",
                      "display": "Numerator"
                    }
                  ]
                },
                "count": 0
              }
            ]
          }
        ],
        "evaluatedResource": [
          {
            "reference": "Patient/6b9ee7da-468e-4501-a633-5f813e00a5c5"
          },
          {
            "reference": "Encounter/938d99d0-9c95-4a94-b21b-094216fe19c3"
          },
          {
            "reference": "Encounter/3eb8c6a7-b05a-449e-acc3-d85af6a42bda"
          },
          {
            "reference": "Encounter/2ae195d3-414d-4117-8c10-381d9b4e51b6"
          },
          {
            "reference": "Coverage/c15efc3b-3700-4bf9-8881-bdf7d2076bd3"
          },
          {
            "reference": "Procedure/1954aa02-2209-4f1e-b093-39c67c6b7ac9"
          },
          {
            "reference": "Organization/7c029a19-3160-462c-9f61-a2b69465940f"
          },
          {
            "reference": "Practitioner/439dfa25-9495-42d7-a50e-ad30b42f939f"
          }
        ]
      },
      "request": {
        "method": "PUT",
        "url": "MeasureReport/3d830e97-52e9-44d6-94f4-afd14961d7d7"
      }
    }
  ]
}