{
  "resourceType": "Bundle",
  "id": "633b3f9f0968f80122503ce1",
  "type": "transaction",
  "entry": [
    {
      "fullUrl": "https://madie.cms.gov/Patient/a3da8717-5010-4401-beb4-2591a89e8565",
      "resource": {
        "resourceType": "Patient",
        "id": "a3da8717-5010-4401-beb4-2591a89e8565",
        "meta": {
          "profile": [
            "http://hl7.org/fhir/us/qicore/StructureDefinition/qicore-patient"
          ]
        },
        "text": {
          "status": "generated",
          "div": "<div xmlns=\"http://www.w3.org/1999/xhtml\"><div class=\"hapiHeaderText\">LastAssPrfEGAResultQuantityEQ20 <b>DENOMPASS </b></div><table class=\"hapiPropertyTable\"><tbody><tr><td>Date of birth</td><td><span>01 February 2004</span></td></tr></tbody></table></div>"
        },
        "extension": [
          {
            "url": "http://hl7.org/fhir/us/core/StructureDefinition/us-core-race",
            "extension": [
              {
                "url": "ombCategory",
                "valueCoding": {
                  "system": "urn:oid:2.16.840.1.113883.6.238",
                  "code": "1002-5",
                  "display": "American Indian or Alaska Native",
                  "userSelected": true
                }
              },
              {
                "url": "text",
                "valueString": "American Indian or Alaska Native"
              }
            ]
          },
          {
            "url": "http://hl7.org/fhir/us/core/StructureDefinition/us-core-ethnicity",
            "extension": [
              {
                "url": "ombCategory",
                "valueCoding": {
                  "system": "urn:oid:2.16.840.1.113883.6.238",
                  "code": "2135-2",
                  "display": "Hispanic or Latino",
                  "userSelected": true
                }
              },
              {
                "url": "text",
                "valueString": "Hispanic or Latino"
              }
            ]
          }
        ],
        "identifier": [
          {
            "type": {
              "coding": [
                {
                  "system": "http://terminology.hl7.org/CodeSystem/v2-0203",
                  "code": "MR"
                }
              ]
            },
            "system": "https://bonnie-fhir.healthit.gov/",
            "value": "633b3f9f0968f80122503ce1"
          }
        ],
        "active": true,
        "name": [
          {
            "use": "usual",
            "family": "DENOMPass",
            "given": [
              "LastAssPrfEGAResultQuantityEQ20"
            ]
          }
        ],
        "gender": "female",
        "birthDate": "2004-02-01"
      },
      "request": {
        "method": "PUT",
        "url": "Patient/a3da8717-5010-4401-beb4-2591a89e8565"
      }
    },
    {
      "fullUrl": "https://madie.cms.gov/Observation/40299edd-f4f6-4ce8-9c11-beacd58c9203",
      "resource": {
        "resourceType": "Observation",
        "id": "40299edd-f4f6-4ce8-9c11-beacd58c9203",
        "meta": {
          "profile": [
            "http://hl7.org/fhir/us/qicore/StructureDefinition/qicore-observation"
          ]
        },
        "status": "final",
        "category": [
          {
            "coding": [
              {
                "system": "http://terminology.hl7.org/CodeSystem/observation-category",
                "code": "exam",
                "display": "exam",
                "userSelected": true
              }
            ]
          }
        ],
        "code": {
          "coding": [
            {
              "system": "http://loinc.org",
              "code": "93857-1"
            }
          ]
        },
        "subject": {
          "reference": "Patient/a3da8717-5010-4401-beb4-2591a89e8565"
        },
        "effectiveDateTime": "2024-02-01T08:00:00.000+00:00",
        "valueDateTime": "2024-02-01T08:00:00+00:00"
      },
      "request": {
        "method": "PUT",
        "url": "Observation/40299edd-f4f6-4ce8-9c11-beacd58c9203"
      }
    },
    {
      "fullUrl": "https://madie.cms.gov/Observation/5da2b818-20fa-4d95-9699-1587e03d4636",
      "resource": {
        "resourceType": "Observation",
        "id": "5da2b818-20fa-4d95-9699-1587e03d4636",
        "meta": {
          "profile": [
            "http://hl7.org/fhir/us/qicore/StructureDefinition/qicore-observation"
          ]
        },
        "status": "final",
        "category": [
          {
            "coding": [
              {
                "system": "http://terminology.hl7.org/CodeSystem/observation-category",
                "code": "exam",
                "display": "exam",
                "userSelected": true
              }
            ]
          }
        ],
        "code": {
          "coding": [
            {
              "system": "http://loinc.org",
              "code": "11884-4"
            }
          ]
        },
        "subject": {
          "reference": "Patient/a3da8717-5010-4401-beb4-2591a89e8565"
        },
        "effectiveDateTime": "2024-02-01T08:00:00.000+00:00",
        "valueQuantity": {
          "value": 20,
          "unit": "wk"
        }
      },
      "request": {
        "method": "PUT",
        "url": "Observation/5da2b818-20fa-4d95-9699-1587e03d4636"
      }
    },
    {
      "fullUrl": "https://madie.cms.gov/Encounter/9684160a-1ab4-4a89-a342-740ad09d402a",
      "resource": {
        "resourceType": "Encounter",
        "id": "9684160a-1ab4-4a89-a342-740ad09d402a",
        "meta": {
          "profile": [
            "http://hl7.org/fhir/us/qicore/StructureDefinition/qicore-encounter"
          ]
        },
        "status": "finished",
        "class": {
          "system": "http://terminology.hl7.org/CodeSystem/v3-ActCode",
          "code": "IMP",
          "display": "inpatient encounter"
        },
        "type": [
          {
            "coding": [
              {
                "system": "http://snomed.info/sct",
                "code": "183452005"
              }
            ]
          }
        ],
        "subject": {
          "reference": "Patient/a3da8717-5010-4401-beb4-2591a89e8565"
        },
        "period": {
          "start": "2024-02-01T08:00:00.000Z",
          "end": "2024-02-05T08:15:00.000Z"
        }
      },
      "request": {
        "method": "PUT",
        "url": "Encounter/9684160a-1ab4-4a89-a342-740ad09d402a"
      }
    },
    {
      "fullUrl": "https://madie.cms.gov/Procedure/58351d28-f3d3-489c-8c99-c03e477edc25",
      "resource": {
        "resourceType": "Procedure",
        "id": "58351d28-f3d3-489c-8c99-c03e477edc25",
        "meta": {
          "profile": [
            "http://hl7.org/fhir/us/qicore/StructureDefinition/qicore-procedure"
          ]
        },
        "extension": [
          {
            "url": "http://hl7.org/fhir/us/qicore/StructureDefinition/qicore-recorded",
            "valueDateTime": "2013-04-05T09:35:00-04:00"
          }
        ],
        "status": "completed",
        "code": {
          "coding": [
            {
              "system": "http://snomed.info/sct",
              "code": "10745001"
            }
          ]
        },
        "subject": {
          "reference": "Patient/a3da8717-5010-4401-beb4-2591a89e8565"
        },
        "performedPeriod": {
          "start": "2024-02-01T08:00:00.000Z",
          "end": "2024-02-05T08:15:00.000Z"
        }
      },
      "request": {
        "method": "PUT",
        "url": "Procedure/58351d28-f3d3-489c-8c99-c03e477edc25"
      }
    },
    {
      "fullUrl": "https://madie.cms.gov/Coverage/1b4d897d-dbc4-468f-a594-958a4a2db184",
      "resource": {
        "resourceType": "Coverage",
        "id": "1b4d897d-dbc4-468f-a594-958a4a2db184",
        "meta": {
          "profile": [
            "http://hl7.org/fhir/us/qicore/StructureDefinition/qicore-coverage"
          ]
        },
        "status": "active",
        "beneficiary": {
          "reference": "Patient/a3da8717-5010-4401-beb4-2591a89e8565"
        },
        "payor": [
          {
            "reference": "Organization/e25095f1-921a-4b64-8d5a-526701623228"
          }
        ]
      },
      "request": {
        "method": "PUT",
        "url": "Coverage/1b4d897d-dbc4-468f-a594-958a4a2db184"
      }
    },
    {
      "fullUrl": "https://madie.cms.gov/Organization/e25095f1-921a-4b64-8d5a-526701623228",
      "resource": {
        "resourceType": "Organization",
        "id": "e25095f1-921a-4b64-8d5a-526701623228",
        "meta": {
          "profile": [
            "http://hl7.org/fhir/us/qicore/StructureDefinition/qicore-organization"
          ]
        },
        "identifier": [
          {
            "use": "temp",
            "system": "urn:oid:2.16.840.1.113883.4.4",
            "value": "21-3259825"
          }
        ],
        "active": true,
        "type": [
          {
            "coding": [
              {
                "system": "http://terminology.hl7.org/CodeSystem/organization-type",
                "code": "pay",
                "display": "Payer"
              }
            ]
          }
        ],
        "name": "Blue Cross Blue Shield of Texas",
        "telecom": [
          {
            "system": "phone",
            "value": "(+1) 972-766-6900"
          }
        ],
        "address": [
          {
            "use": "billing",
            "type": "postal",
            "line": [
              "P.O. Box 660044"
            ],
            "city": "Dallas",
            "state": "TX",
            "postalCode": "75266-0044",
            "country": "USA"
          }
        ]
      },
      "request": {
        "method": "PUT",
        "url": "Organization/e25095f1-921a-4b64-8d5a-526701623228"
      }
    },
    {
      "fullUrl": "https://madie.cms.gov/Practitioner/003c726c-e926-41b6-9917-0babaa668a51",
      "resource": {
        "resourceType": "Practitioner",
        "id": "003c726c-e926-41b6-9917-0babaa668a51",
        "identifier": [
          {
            "system": "http://hl7.org/fhir/sid/us-npi",
            "value": "123456"
          }
        ],
        "name": [
          {
            "family": "Evil",
            "prefix": [
              "Dr"
            ]
          }
        ]
      },
      "request": {
        "method": "PUT",
        "url": "Practitioner/003c726c-e926-41b6-9917-0babaa668a51"
      }
    },
    {
      "fullUrl": "https://madie.cms.gov/MeasureReport/9f83c8fb-b52a-4abf-9ebc-2b173bb03fe8",
      "resource": {
        "resourceType": "MeasureReport",
        "id": "9f83c8fb-b52a-4abf-9ebc-2b173bb03fe8",
        "meta": {
          "profile": [
            "http://hl7.org/fhir/us/cqfmeasures/StructureDefinition/test-case-cqfm"
          ]
        },
        "contained": [
          {
            "resourceType": "Parameters",
            "id": "34eea340-e282-4cec-894f-a12fd23ebf06-parameters",
            "parameter": [
              {
                "name": "subject",
                "valueString": "a3da8717-5010-4401-beb4-2591a89e8565"
              }
            ]
          }
        ],
        "extension": [
          {
            "url": "http://hl7.org/fhir/us/cqfmeasures/StructureDefinition/cqfm-inputParameters",
            "valueReference": {
              "reference": "#34eea340-e282-4cec-894f-a12fd23ebf06-parameters"
            }
          },
          {
            "url": "http://hl7.org/fhir/us/cqfmeasures/StructureDefinition/cqfm-testCaseDescription",
            "valueMarkdown": "Last Assessment Performed EGA = 20 weeks\n"
          }
        ],
        "modifierExtension": [
          {
            "url": "http://hl7.org/fhir/us/cqfmeasures/StructureDefinition/cqfm-isTestCase",
            "valueBoolean": true
          }
        ],
        "status": "complete",
        "type": "individual",
        "measure": "https://madie.cms.gov/Measure/SevereObstetricComplicationsFHIR",
        "period": {
          "start": "2024-01-01",
          "end": "2024-12-31"
        },
        "group": [
          {
            "population": [
              {
                "code": {
                  "coding": [
                    {
                      "system": "http://terminology.hl7.org/CodeSystem/measure-population",
                      "code": "initial-population",
                      "display": "Initial Population"
                    }
                  ]
                },
                "count": 1
              },
              {
                "code": {
                  "coding": [
                    {
                      "system": "http://terminology.hl7.org/CodeSystem/measure-population",
                      "code": "denominator",
                      "display": "Denominator"
                    }
                  ]
                },
                "count": 1
              },
              {
                "code": {
                  "coding": [
                    {
                      "system": "http://terminology.hl7.org/CodeSystem/measure-population",
                      "code": "denominator-exclusion",
                      "display": "Denominator Exclusion"
                    }
                  ]
                },
                "count": 0
              },
              {
                "code": {
                  "coding": [
                    {
                      "system": "http://terminology.hl7.org/CodeSystem/measure-population",
                      "code": "numerator",
                      "display": "Numerator"
                    }
                  ]
                },
                "count": 0
              }
            ]
          }
        ],
        "evaluatedResource": [
          {
            "reference": "Patient/a3da8717-5010-4401-beb4-2591a89e8565"
          },
          {
            "reference": "Observation/40299edd-f4f6-4ce8-9c11-beacd58c9203"
          },
          {
            "reference": "Observation/5da2b818-20fa-4d95-9699-1587e03d4636"
          },
          {
            "reference": "Encounter/9684160a-1ab4-4a89-a342-740ad09d402a"
          },
          {
            "reference": "Procedure/58351d28-f3d3-489c-8c99-c03e477edc25"
          },
          {
            "reference": "Coverage/1b4d897d-dbc4-468f-a594-958a4a2db184"
          },
          {
            "reference": "Organization/e25095f1-921a-4b64-8d5a-526701623228"
          },
          {
            "reference": "Practitioner/003c726c-e926-41b6-9917-0babaa668a51"
          }
        ]
      },
      "request": {
        "method": "PUT",
        "url": "MeasureReport/9f83c8fb-b52a-4abf-9ebc-2b173bb03fe8"
      }
    }
  ]
}