{
  "resourceType": "Bundle",
  "id": "633b3fa00968f80122503d16",
  "type": "transaction",
  "entry": [
    {
      "fullUrl": "https://madie.cms.gov/Patient/8042825f-fbfa-4995-b154-fbfd6d4fa2cf",
      "resource": {
        "resourceType": "Patient",
        "id": "8042825f-fbfa-4995-b154-fbfd6d4fa2cf",
        "meta": {
          "profile": [
            "http://hl7.org/fhir/us/qicore/StructureDefinition/qicore-patient"
          ]
        },
        "text": {
          "status": "generated",
          "div": "<div xmlns=\"http://www.w3.org/1999/xhtml\"><div class=\"hapiHeaderText\">DelProcRelDtTmEQOBSEnd <b>IPPASS </b></div><table class=\"hapiPropertyTable\"><tbody><tr><td>Date of birth</td><td><span>31 January 2004</span></td></tr></tbody></table></div>"
        },
        "extension": [
          {
            "url": "http://hl7.org/fhir/us/core/StructureDefinition/us-core-race",
            "extension": [
              {
                "url": "ombCategory",
                "valueCoding": {
                  "system": "urn:oid:2.16.840.1.113883.6.238",
                  "code": "1002-5",
                  "display": "American Indian or Alaska Native",
                  "userSelected": true
                }
              },
              {
                "url": "text",
                "valueString": "American Indian or Alaska Native"
              }
            ]
          },
          {
            "url": "http://hl7.org/fhir/us/core/StructureDefinition/us-core-ethnicity",
            "extension": [
              {
                "url": "ombCategory",
                "valueCoding": {
                  "system": "urn:oid:2.16.840.1.113883.6.238",
                  "code": "2135-2",
                  "display": "Hispanic or Latino",
                  "userSelected": true
                }
              },
              {
                "url": "text",
                "valueString": "Hispanic or Latino"
              }
            ]
          }
        ],
        "identifier": [
          {
            "type": {
              "coding": [
                {
                  "system": "http://terminology.hl7.org/CodeSystem/v2-0203",
                  "code": "MR"
                }
              ]
            },
            "system": "https://bonnie-fhir.healthit.gov/",
            "value": "633b3fa00968f80122503d16"
          }
        ],
        "active": true,
        "name": [
          {
            "use": "usual",
            "family": "IPPass",
            "given": [
              "DelProcRelDtTmEQOBSEnd"
            ]
          }
        ],
        "gender": "female",
        "birthDate": "2004-01-31"
      },
      "request": {
        "method": "PUT",
        "url": "Patient/8042825f-fbfa-4995-b154-fbfd6d4fa2cf"
      }
    },
    {
      "fullUrl": "https://madie.cms.gov/Encounter/0065b1b4-5852-42f7-8b1a-0757a31c2f84",
      "resource": {
        "resourceType": "Encounter",
        "id": "0065b1b4-5852-42f7-8b1a-0757a31c2f84",
        "meta": {
          "profile": [
            "http://hl7.org/fhir/us/qicore/StructureDefinition/qicore-encounter"
          ]
        },
        "status": "finished",
        "class": {
          "system": "http://terminology.hl7.org/CodeSystem/v3-ActCode",
          "code": "IMP",
          "display": "inpatient encounter"
        },
        "type": [
          {
            "coding": [
              {
                "system": "http://snomed.info/sct",
                "code": "183452005"
              }
            ]
          }
        ],
        "subject": {
          "reference": "Patient/8042825f-fbfa-4995-b154-fbfd6d4fa2cf"
        },
        "period": {
          "start": "2024-02-01T09:00:00.000Z",
          "end": "2024-02-05T08:15:00.000Z"
        }
      },
      "request": {
        "method": "PUT",
        "url": "Encounter/0065b1b4-5852-42f7-8b1a-0757a31c2f84"
      }
    },
    {
      "fullUrl": "https://madie.cms.gov/Encounter/721f495e-943b-443c-84c6-59471e407c7e",
      "resource": {
        "resourceType": "Encounter",
        "id": "721f495e-943b-443c-84c6-59471e407c7e",
        "meta": {
          "profile": [
            "http://hl7.org/fhir/us/qicore/StructureDefinition/qicore-encounter"
          ]
        },
        "status": "finished",
        "class": {
          "system": "http://terminology.hl7.org/CodeSystem/v3-ActCode",
          "code": "IMP",
          "display": "inpatient encounter"
        },
        "type": [
          {
            "coding": [
              {
                "system": "http://snomed.info/sct",
                "code": "448951000124107"
              }
            ]
          }
        ],
        "subject": {
          "reference": "Patient/8042825f-fbfa-4995-b154-fbfd6d4fa2cf"
        },
        "period": {
          "start": "2024-02-01T08:00:00.000Z",
          "end": "2024-02-01T08:59:00.000Z"
        }
      },
      "request": {
        "method": "PUT",
        "url": "Encounter/721f495e-943b-443c-84c6-59471e407c7e"
      }
    },
    {
      "fullUrl": "https://madie.cms.gov/Encounter/55cab670-de7e-48fc-8fe5-9e2a344a3247",
      "resource": {
        "resourceType": "Encounter",
        "id": "55cab670-de7e-48fc-8fe5-9e2a344a3247",
        "meta": {
          "profile": [
            "http://hl7.org/fhir/us/qicore/StructureDefinition/qicore-encounter"
          ]
        },
        "status": "finished",
        "class": {
          "system": "http://terminology.hl7.org/CodeSystem/v3-ActCode",
          "code": "IMP",
          "display": "inpatient encounter"
        },
        "type": [
          {
            "coding": [
              {
                "system": "http://snomed.info/sct",
                "code": "4525004"
              }
            ]
          }
        ],
        "subject": {
          "reference": "Patient/8042825f-fbfa-4995-b154-fbfd6d4fa2cf"
        },
        "period": {
          "start": "2024-02-01T07:00:00.000Z",
          "end": "2024-02-01T07:59:00.000Z"
        }
      },
      "request": {
        "method": "PUT",
        "url": "Encounter/55cab670-de7e-48fc-8fe5-9e2a344a3247"
      }
    },
    {
      "fullUrl": "https://madie.cms.gov/Procedure/ae3e5759-5583-4e15-b8bf-f8e9b5ec0cd7",
      "resource": {
        "resourceType": "Procedure",
        "id": "ae3e5759-5583-4e15-b8bf-f8e9b5ec0cd7",
        "meta": {
          "profile": [
            "http://hl7.org/fhir/us/qicore/StructureDefinition/qicore-procedure"
          ]
        },
        "extension": [
          {
            "url": "http://hl7.org/fhir/us/qicore/StructureDefinition/qicore-recorded",
            "valueDateTime": "2013-04-05T09:35:00-04:00"
          }
        ],
        "status": "completed",
        "code": {
          "coding": [
            {
              "system": "http://snomed.info/sct",
              "code": "10745001"
            }
          ]
        },
        "subject": {
          "reference": "Patient/8042825f-fbfa-4995-b154-fbfd6d4fa2cf"
        },
        "performedDateTime": "2024-02-01T08:59:00.000+00:00"
      },
      "request": {
        "method": "PUT",
        "url": "Procedure/ae3e5759-5583-4e15-b8bf-f8e9b5ec0cd7"
      }
    },
    {
      "fullUrl": "https://madie.cms.gov/Coverage/7343183b-07ff-4a67-a6d4-27db31e70b28",
      "resource": {
        "resourceType": "Coverage",
        "id": "7343183b-07ff-4a67-a6d4-27db31e70b28",
        "meta": {
          "profile": [
            "http://hl7.org/fhir/us/qicore/StructureDefinition/qicore-coverage"
          ]
        },
        "status": "active",
        "beneficiary": {
          "reference": "Patient/8042825f-fbfa-4995-b154-fbfd6d4fa2cf"
        },
        "payor": [
          {
            "reference": "Organization/2fb9ad54-f4d5-44c3-b443-6d130afbc4dc"
          }
        ]
      },
      "request": {
        "method": "PUT",
        "url": "Coverage/7343183b-07ff-4a67-a6d4-27db31e70b28"
      }
    },
    {
      "fullUrl": "https://madie.cms.gov/Organization/2fb9ad54-f4d5-44c3-b443-6d130afbc4dc",
      "resource": {
        "resourceType": "Organization",
        "id": "2fb9ad54-f4d5-44c3-b443-6d130afbc4dc",
        "meta": {
          "profile": [
            "http://hl7.org/fhir/us/qicore/StructureDefinition/qicore-organization"
          ]
        },
        "identifier": [
          {
            "use": "temp",
            "system": "urn:oid:2.16.840.1.113883.4.4",
            "value": "21-3259825"
          }
        ],
        "active": true,
        "type": [
          {
            "coding": [
              {
                "system": "http://terminology.hl7.org/CodeSystem/organization-type",
                "code": "pay",
                "display": "Payer"
              }
            ]
          }
        ],
        "name": "Blue Cross Blue Shield of Texas",
        "telecom": [
          {
            "system": "phone",
            "value": "(+1) 972-766-6900"
          }
        ],
        "address": [
          {
            "use": "billing",
            "type": "postal",
            "line": [
              "P.O. Box 660044"
            ],
            "city": "Dallas",
            "state": "TX",
            "postalCode": "75266-0044",
            "country": "USA"
          }
        ]
      },
      "request": {
        "method": "PUT",
        "url": "Organization/2fb9ad54-f4d5-44c3-b443-6d130afbc4dc"
      }
    },
    {
      "fullUrl": "https://madie.cms.gov/Practitioner/708fbd24-9075-464d-bbba-d613ce1cfb92",
      "resource": {
        "resourceType": "Practitioner",
        "id": "708fbd24-9075-464d-bbba-d613ce1cfb92",
        "identifier": [
          {
            "system": "http://hl7.org/fhir/sid/us-npi",
            "value": "123456"
          }
        ],
        "name": [
          {
            "family": "Evil",
            "prefix": [
              "Dr"
            ]
          }
        ]
      },
      "request": {
        "method": "PUT",
        "url": "Practitioner/708fbd24-9075-464d-bbba-d613ce1cfb92"
      }
    },
    {
      "fullUrl": "https://madie.cms.gov/MeasureReport/9bed274f-2a59-45bf-b81a-4660a9c43986",
      "resource": {
        "resourceType": "MeasureReport",
        "id": "9bed274f-2a59-45bf-b81a-4660a9c43986",
        "meta": {
          "profile": [
            "http://hl7.org/fhir/us/cqfmeasures/StructureDefinition/test-case-cqfm"
          ]
        },
        "contained": [
          {
            "resourceType": "Parameters",
            "id": "b08611c5-6a61-4327-bfd0-6e4d7aa8062b-parameters",
            "parameter": [
              {
                "name": "subject",
                "valueString": "8042825f-fbfa-4995-b154-fbfd6d4fa2cf"
              }
            ]
          }
        ],
        "extension": [
          {
            "url": "http://hl7.org/fhir/us/cqfmeasures/StructureDefinition/cqfm-inputParameters",
            "valueReference": {
              "reference": "#b08611c5-6a61-4327-bfd0-6e4d7aa8062b-parameters"
            }
          },
          {
            "url": "http://hl7.org/fhir/us/cqfmeasures/StructureDefinition/cqfm-testCaseDescription",
            "valueMarkdown": "Delivery Procedure rel date/time = OBS end.  ED/OBS/IP all meet global hospitalization criteria.\n"
          }
        ],
        "modifierExtension": [
          {
            "url": "http://hl7.org/fhir/us/cqfmeasures/StructureDefinition/cqfm-isTestCase",
            "valueBoolean": true
          }
        ],
        "status": "complete",
        "type": "individual",
        "measure": "https://madie.cms.gov/Measure/SevereObstetricComplicationsFHIR",
        "period": {
          "start": "2024-01-01",
          "end": "2024-12-31"
        },
        "group": [
          {
            "population": [
              {
                "code": {
                  "coding": [
                    {
                      "system": "http://terminology.hl7.org/CodeSystem/measure-population",
                      "code": "initial-population",
                      "display": "Initial Population"
                    }
                  ]
                },
                "count": 1
              },
              {
                "code": {
                  "coding": [
                    {
                      "system": "http://terminology.hl7.org/CodeSystem/measure-population",
                      "code": "denominator",
                      "display": "Denominator"
                    }
                  ]
                },
                "count": 0
              },
              {
                "code": {
                  "coding": [
                    {
                      "system": "http://terminology.hl7.org/CodeSystem/measure-population",
                      "code": "denominator-exclusion",
                      "display": "Denominator Exclusion"
                    }
                  ]
                },
                "count": 0
              },
              {
                "code": {
                  "coding": [
                    {
                      "system": "http://terminology.hl7.org/CodeSystem/measure-population",
                      "code": "numerator",
                      "display": "Numerator"
                    }
                  ]
                },
                "count": 0
              }
            ]
          }
        ],
        "evaluatedResource": [
          {
            "reference": "Patient/8042825f-fbfa-4995-b154-fbfd6d4fa2cf"
          },
          {
            "reference": "Encounter/0065b1b4-5852-42f7-8b1a-0757a31c2f84"
          },
          {
            "reference": "Encounter/721f495e-943b-443c-84c6-59471e407c7e"
          },
          {
            "reference": "Encounter/55cab670-de7e-48fc-8fe5-9e2a344a3247"
          },
          {
            "reference": "Procedure/ae3e5759-5583-4e15-b8bf-f8e9b5ec0cd7"
          },
          {
            "reference": "Coverage/7343183b-07ff-4a67-a6d4-27db31e70b28"
          },
          {
            "reference": "Organization/2fb9ad54-f4d5-44c3-b443-6d130afbc4dc"
          },
          {
            "reference": "Practitioner/708fbd24-9075-464d-bbba-d613ce1cfb92"
          }
        ]
      },
      "request": {
        "method": "PUT",
        "url": "MeasureReport/9bed274f-2a59-45bf-b81a-4660a9c43986"
      }
    }
  ]
}