{
  "resourceType": "Bundle",
  "id": "633b3f9e0968f80122503cd8",
  "type": "transaction",
  "entry": [
    {
      "fullUrl": "https://madie.cms.gov/Patient/8de6fb47-6c7e-4ba9-b1e0-ac23166f7b5c",
      "resource": {
        "resourceType": "Patient",
        "id": "8de6fb47-6c7e-4ba9-b1e0-ac23166f7b5c",
        "meta": {
          "profile": [
            "http://hl7.org/fhir/us/qicore/StructureDefinition/qicore-patient"
          ]
        },
        "text": {
          "status": "generated",
          "div": "<div xmlns=\"http://www.w3.org/1999/xhtml\"><div class=\"hapiHeaderText\">Test4EDDMinutesImpactOnWksGest <b>DENOMPASS </b></div><table class=\"hapiPropertyTable\"><tbody><tr><td>Date of birth</td><td><span>01 February 1958</span></td></tr></tbody></table></div>"
        },
        "extension": [
          {
            "url": "http://hl7.org/fhir/us/core/StructureDefinition/us-core-race",
            "extension": [
              {
                "url": "ombCategory",
                "valueCoding": {
                  "system": "urn:oid:2.16.840.1.113883.6.238",
                  "code": "1002-5",
                  "display": "American Indian or Alaska Native",
                  "userSelected": true
                }
              },
              {
                "url": "text",
                "valueString": "American Indian or Alaska Native"
              }
            ]
          },
          {
            "url": "http://hl7.org/fhir/us/core/StructureDefinition/us-core-ethnicity",
            "extension": [
              {
                "url": "ombCategory",
                "valueCoding": {
                  "system": "urn:oid:2.16.840.1.113883.6.238",
                  "code": "2135-2",
                  "display": "Hispanic or Latino",
                  "userSelected": true
                }
              },
              {
                "url": "text",
                "valueString": "Hispanic or Latino"
              }
            ]
          }
        ],
        "identifier": [
          {
            "type": {
              "coding": [
                {
                  "system": "http://terminology.hl7.org/CodeSystem/v2-0203",
                  "code": "MR"
                }
              ]
            },
            "system": "https://bonnie-fhir.healthit.gov/",
            "value": "633b3f9e0968f80122503cd8"
          }
        ],
        "active": true,
        "name": [
          {
            "use": "usual",
            "family": "DENOMPass",
            "given": [
              "Test4EDDMinutesImpactOnWksGest"
            ]
          }
        ],
        "gender": "female",
        "birthDate": "1970-02-01"
      },
      "request": {
        "method": "PUT",
        "url": "Patient/8de6fb47-6c7e-4ba9-b1e0-ac23166f7b5c"
      }
    },
    {
      "fullUrl": "https://madie.cms.gov/Observation/f59ddb7f-6443-41df-8e39-c66377baca76",
      "resource": {
        "resourceType": "Observation",
        "id": "f59ddb7f-6443-41df-8e39-c66377baca76",
        "meta": {
          "profile": [
            "http://hl7.org/fhir/us/qicore/StructureDefinition/qicore-observation"
          ]
        },
        "status": "final",
        "category": [
          {
            "coding": [
              {
                "system": "http://terminology.hl7.org/CodeSystem/observation-category",
                "code": "exam",
                "display": "exam",
                "userSelected": true
              }
            ]
          }
        ],
        "code": {
          "coding": [
            {
              "system": "http://loinc.org",
              "code": "93857-1"
            }
          ]
        },
        "subject": {
          "reference": "Patient/8de6fb47-6c7e-4ba9-b1e0-ac23166f7b5c"
        },
        "effectiveDateTime": "2024-02-01T08:00:00.000+00:00",
        "valueDateTime": "2024-02-01T08:00:00+00:00"
      },
      "request": {
        "method": "PUT",
        "url": "Observation/f59ddb7f-6443-41df-8e39-c66377baca76"
      }
    },
    {
      "fullUrl": "https://madie.cms.gov/Observation/2ebb1a67-fa8f-41ae-aa0d-9b27c143638a",
      "resource": {
        "resourceType": "Observation",
        "id": "2ebb1a67-fa8f-41ae-aa0d-9b27c143638a",
        "meta": {
          "profile": [
            "http://hl7.org/fhir/us/qicore/StructureDefinition/qicore-observation"
          ]
        },
        "status": "final",
        "category": [
          {
            "coding": [
              {
                "system": "http://terminology.hl7.org/CodeSystem/observation-category",
                "code": "exam",
                "display": "exam",
                "userSelected": true
              }
            ]
          }
        ],
        "code": {
          "coding": [
            {
              "system": "http://loinc.org",
              "code": "11778-8"
            }
          ]
        },
        "subject": {
          "reference": "Patient/8de6fb47-6c7e-4ba9-b1e0-ac23166f7b5c"
        },
        "effectiveDateTime": "2023-04-13T08:01:00.000+00:00",
        "valueDateTime": "2024-02-01T23:59:00.000+00:00"
      },
      "request": {
        "method": "PUT",
        "url": "Observation/2ebb1a67-fa8f-41ae-aa0d-9b27c143638a"
      }
    },
    {
      "fullUrl": "https://madie.cms.gov/Encounter/549e7b12-2b7d-478b-99f8-6bf78a2c24c5",
      "resource": {
        "resourceType": "Encounter",
        "id": "549e7b12-2b7d-478b-99f8-6bf78a2c24c5",
        "meta": {
          "profile": [
            "http://hl7.org/fhir/us/qicore/StructureDefinition/qicore-encounter"
          ]
        },
        "status": "finished",
        "class": {
          "system": "http://terminology.hl7.org/CodeSystem/v3-ActCode",
          "code": "IMP",
          "display": "inpatient encounter"
        },
        "type": [
          {
            "coding": [
              {
                "system": "http://snomed.info/sct",
                "code": "183452005"
              }
            ]
          }
        ],
        "subject": {
          "reference": "Patient/8de6fb47-6c7e-4ba9-b1e0-ac23166f7b5c"
        },
        "period": {
          "start": "2024-01-30T08:00:00.000Z",
          "end": "2024-02-05T08:15:00.000Z"
        }
      },
      "request": {
        "method": "PUT",
        "url": "Encounter/549e7b12-2b7d-478b-99f8-6bf78a2c24c5"
      }
    },
    {
      "fullUrl": "https://madie.cms.gov/Procedure/de7e6e28-5b6c-4c17-ba61-ab540e32fb62",
      "resource": {
        "resourceType": "Procedure",
        "id": "de7e6e28-5b6c-4c17-ba61-ab540e32fb62",
        "meta": {
          "profile": [
            "http://hl7.org/fhir/us/qicore/StructureDefinition/qicore-procedure"
          ]
        },
        "extension": [
          {
            "url": "http://hl7.org/fhir/us/qicore/StructureDefinition/qicore-recorded",
            "valueDateTime": "2013-04-05T09:35:00-04:00"
          }
        ],
        "status": "completed",
        "code": {
          "coding": [
            {
              "system": "http://snomed.info/sct",
              "code": "10745001"
            }
          ]
        },
        "subject": {
          "reference": "Patient/8de6fb47-6c7e-4ba9-b1e0-ac23166f7b5c"
        },
        "performedPeriod": {
          "start": "2024-02-01T08:00:00.000Z"
        }
      },
      "request": {
        "method": "PUT",
        "url": "Procedure/de7e6e28-5b6c-4c17-ba61-ab540e32fb62"
      }
    },
    {
      "fullUrl": "https://madie.cms.gov/Coverage/63e8df13-5b07-4a11-b7e3-4e9953ecfb3a",
      "resource": {
        "resourceType": "Coverage",
        "id": "63e8df13-5b07-4a11-b7e3-4e9953ecfb3a",
        "meta": {
          "profile": [
            "http://hl7.org/fhir/us/qicore/StructureDefinition/qicore-coverage"
          ]
        },
        "status": "active",
        "beneficiary": {
          "reference": "Patient/8de6fb47-6c7e-4ba9-b1e0-ac23166f7b5c"
        },
        "payor": [
          {
            "reference": "Organization/b2d9627f-ae68-4989-a9df-b95c365ead98"
          }
        ]
      },
      "request": {
        "method": "PUT",
        "url": "Coverage/63e8df13-5b07-4a11-b7e3-4e9953ecfb3a"
      }
    },
    {
      "fullUrl": "https://madie.cms.gov/Organization/b2d9627f-ae68-4989-a9df-b95c365ead98",
      "resource": {
        "resourceType": "Organization",
        "id": "b2d9627f-ae68-4989-a9df-b95c365ead98",
        "meta": {
          "profile": [
            "http://hl7.org/fhir/us/qicore/StructureDefinition/qicore-organization"
          ]
        },
        "identifier": [
          {
            "use": "temp",
            "system": "urn:oid:2.16.840.1.113883.4.4",
            "value": "21-3259825"
          }
        ],
        "active": true,
        "type": [
          {
            "coding": [
              {
                "system": "http://terminology.hl7.org/CodeSystem/organization-type",
                "code": "pay",
                "display": "Payer"
              }
            ]
          }
        ],
        "name": "Blue Cross Blue Shield of Texas",
        "telecom": [
          {
            "system": "phone",
            "value": "(+1) 972-766-6900"
          }
        ],
        "address": [
          {
            "use": "billing",
            "type": "postal",
            "line": [
              "P.O. Box 660044"
            ],
            "city": "Dallas",
            "state": "TX",
            "postalCode": "75266-0044",
            "country": "USA"
          }
        ]
      },
      "request": {
        "method": "PUT",
        "url": "Organization/b2d9627f-ae68-4989-a9df-b95c365ead98"
      }
    },
    {
      "fullUrl": "https://madie.cms.gov/Practitioner/062e18b4-0dcf-4982-858c-9b6618a43f03",
      "resource": {
        "resourceType": "Practitioner",
        "id": "062e18b4-0dcf-4982-858c-9b6618a43f03",
        "identifier": [
          {
            "system": "http://hl7.org/fhir/sid/us-npi",
            "value": "123456"
          }
        ],
        "name": [
          {
            "family": "Evil",
            "prefix": [
              "Dr"
            ]
          }
        ]
      },
      "request": {
        "method": "PUT",
        "url": "Practitioner/062e18b4-0dcf-4982-858c-9b6618a43f03"
      }
    },
    {
      "fullUrl": "https://madie.cms.gov/MeasureReport/82d0cebe-4eef-464b-b597-29c4e94ee42b",
      "resource": {
        "resourceType": "MeasureReport",
        "id": "82d0cebe-4eef-464b-b597-29c4e94ee42b",
        "meta": {
          "profile": [
            "http://hl7.org/fhir/us/cqfmeasures/StructureDefinition/test-case-cqfm"
          ]
        },
        "contained": [
          {
            "resourceType": "Parameters",
            "id": "2c9f3e84-e76a-4145-92e2-e98c13d9ffc9-parameters",
            "parameter": [
              {
                "name": "subject",
                "valueString": "8de6fb47-6c7e-4ba9-b1e0-ac23166f7b5c"
              }
            ]
          }
        ],
        "extension": [
          {
            "url": "http://hl7.org/fhir/us/cqfmeasures/StructureDefinition/cqfm-inputParameters",
            "valueReference": {
              "reference": "#2c9f3e84-e76a-4145-92e2-e98c13d9ffc9-parameters"
            }
          },
          {
            "url": "http://hl7.org/fhir/us/cqfmeasures/StructureDefinition/cqfm-testCaseDescription",
            "valueMarkdown": "\"Delivery date = 2/1/2012 @0800.  EDD = 2/1/2012\n @11:59 pm.  Weeks gestation = 40.\"  To test the impact on calculated weeks gestation, I temporarily changed the logic of this definition:  \"Del Enc with CGA Greater than or Equal to 20 Weeks\" to = 40."
          }
        ],
        "modifierExtension": [
          {
            "url": "http://hl7.org/fhir/us/cqfmeasures/StructureDefinition/cqfm-isTestCase",
            "valueBoolean": true
          }
        ],
        "status": "complete",
        "type": "individual",
        "measure": "https://madie.cms.gov/Measure/SevereObstetricComplicationsFHIR",
        "period": {
          "start": "2024-01-01",
          "end": "2024-12-31"
        },
        "group": [
          {
            "population": [
              {
                "code": {
                  "coding": [
                    {
                      "system": "http://terminology.hl7.org/CodeSystem/measure-population",
                      "code": "initial-population",
                      "display": "Initial Population"
                    }
                  ]
                },
                "count": 1
              },
              {
                "code": {
                  "coding": [
                    {
                      "system": "http://terminology.hl7.org/CodeSystem/measure-population",
                      "code": "denominator",
                      "display": "Denominator"
                    }
                  ]
                },
                "count": 1
              },
              {
                "code": {
                  "coding": [
                    {
                      "system": "http://terminology.hl7.org/CodeSystem/measure-population",
                      "code": "denominator-exclusion",
                      "display": "Denominator Exclusion"
                    }
                  ]
                },
                "count": 0
              },
              {
                "code": {
                  "coding": [
                    {
                      "system": "http://terminology.hl7.org/CodeSystem/measure-population",
                      "code": "numerator",
                      "display": "Numerator"
                    }
                  ]
                },
                "count": 0
              }
            ]
          }
        ],
        "evaluatedResource": [
          {
            "reference": "Patient/8de6fb47-6c7e-4ba9-b1e0-ac23166f7b5c"
          },
          {
            "reference": "Observation/f59ddb7f-6443-41df-8e39-c66377baca76"
          },
          {
            "reference": "Observation/2ebb1a67-fa8f-41ae-aa0d-9b27c143638a"
          },
          {
            "reference": "Encounter/549e7b12-2b7d-478b-99f8-6bf78a2c24c5"
          },
          {
            "reference": "Procedure/de7e6e28-5b6c-4c17-ba61-ab540e32fb62"
          },
          {
            "reference": "Coverage/63e8df13-5b07-4a11-b7e3-4e9953ecfb3a"
          },
          {
            "reference": "Organization/b2d9627f-ae68-4989-a9df-b95c365ead98"
          },
          {
            "reference": "Practitioner/062e18b4-0dcf-4982-858c-9b6618a43f03"
          }
        ]
      },
      "request": {
        "method": "PUT",
        "url": "MeasureReport/82d0cebe-4eef-464b-b597-29c4e94ee42b"
      }
    }
  ]
}