{
  "resourceType": "Bundle",
  "id": "63ec0967ccb3770120fe9c8f",
  "type": "transaction",
  "entry": [
    {
      "fullUrl": "https://madie.cms.gov/Patient/e50e94d0-b676-4df8-971c-72950e4a8fa7",
      "resource": {
        "resourceType": "Patient",
        "id": "e50e94d0-b676-4df8-971c-72950e4a8fa7",
        "meta": {
          "profile": [
            "http://hl7.org/fhir/us/qicore/StructureDefinition/qicore-patient"
          ]
        },
        "text": {
          "status": "generated",
          "div": "<div xmlns=\"http://www.w3.org/1999/xhtml\"><div class=\"hapiHeaderText\">OnAdmit_relevantPeriod <b>HRPASS </b></div><table class=\"hapiPropertyTable\"><tbody><tr><td>Identifier</td><td>849bc1d9a88035639bba704b9d791fc277243ded96eb819b2df3b340c5bc6669</td></tr><tr><td>Date of birth</td><td><span>15 June 1956</span></td></tr></tbody></table></div>"
        },
        "extension": [
          {
            "url": "http://hl7.org/fhir/us/core/StructureDefinition/us-core-race",
            "extension": [
              {
                "url": "ombCategory",
                "valueCoding": {
                  "system": "urn:oid:2.16.840.1.113883.6.238",
                  "code": "2106-3",
                  "display": "White",
                  "userSelected": true
                }
              },
              {
                "url": "text",
                "valueString": "White"
              }
            ]
          },
          {
            "url": "http://hl7.org/fhir/us/core/StructureDefinition/us-core-ethnicity",
            "extension": [
              {
                "url": "ombCategory",
                "valueCoding": {
                  "system": "urn:oid:2.16.840.1.113883.6.238",
                  "code": "2135-2",
                  "display": "Hispanic or Latino",
                  "userSelected": true
                }
              },
              {
                "url": "text",
                "valueString": "Hispanic or Latino"
              }
            ]
          }
        ],
        "identifier": [
          {
            "type": {
              "coding": [
                {
                  "system": "http://terminology.hl7.org/CodeSystem/v2-0203",
                  "code": "MR"
                }
              ]
            },
            "system": "https://bonnie-fhir.healthit.gov/",
            "value": "63ec0967ccb3770120fe9c8f"
          }
        ],
        "active": true,
        "name": [
          {
            "use": "usual",
            "family": "HeartRatePass",
            "given": [
              "OnAdmitrelevantPeriod"
            ]
          }
        ],
        "gender": "male",
        "birthDate": "1956-06-15"
      },
      "request": {
        "method": "PUT",
        "url": "Patient/e50e94d0-b676-4df8-971c-72950e4a8fa7"
      }
    },
    {
      "fullUrl": "https://madie.cms.gov/Encounter/e1d5198f-6ba7-46df-9bad-07bf8a38cca0",
      "resource": {
        "resourceType": "Encounter",
        "id": "e1d5198f-6ba7-46df-9bad-07bf8a38cca0",
        "meta": {
          "profile": [
            "http://hl7.org/fhir/us/qicore/StructureDefinition/qicore-encounter"
          ]
        },
        "status": "finished",
        "class": {
          "system": "http://terminology.hl7.org/CodeSystem/v3-ActCode",
          "code": "ACUTE",
          "display": "acute",
          "userSelected": true
        },
        "type": [
          {
            "coding": [
              {
                "system": "http://snomed.info/sct",
                "code": "183452005"
              }
            ]
          }
        ],
        "subject": {
          "reference": "Patient/e50e94d0-b676-4df8-971c-72950e4a8fa7"
        },
        "period": {
          "start": "2025-07-21T08:15:00.000+00:00",
          "end": "2025-07-22T08:20:00.000+00:00"
        },
        "length": {
          "value": 1,
          "unit": "days"
        }
      },
      "request": {
        "method": "PUT",
        "url": "Encounter/e1d5198f-6ba7-46df-9bad-07bf8a38cca0"
      }
    },
    {
      "fullUrl": "https://madie.cms.gov/Coverage/8bb0b22c-1105-4999-836c-3324bcbeb720",
      "resource": {
        "resourceType": "Coverage",
        "id": "8bb0b22c-1105-4999-836c-3324bcbeb720",
        "meta": {
          "profile": [
            "http://hl7.org/fhir/us/qicore/StructureDefinition/qicore-coverage"
          ]
        },
        "status": "active",
        "type": {
          "coding": [
            {
              "system": "https://nahdo.org/sopt",
              "version": "1.0.1",
              "code": "1",
              "display": "Medicare payer",
              "userSelected": true
            }
          ]
        },
        "beneficiary": {
          "reference": "Patient/e50e94d0-b676-4df8-971c-72950e4a8fa7"
        },
        "period": {
          "start": "2024-01-01T06:00:00.000Z",
          "end": "2027-01-01T11:06:01.000Z"
        },
        "payor": [
          {
            "reference": "Organization/c9512166-25fb-431d-9670-d2fc2fa5bea9"
          }
        ]
      },
      "request": {
        "method": "PUT",
        "url": "Coverage/8bb0b22c-1105-4999-836c-3324bcbeb720"
      }
    },
    {
      "fullUrl": "https://madie.cms.gov/Observation/d51de5bb-3488-439f-ab2e-001e28311352",
      "resource": {
        "resourceType": "Observation",
        "id": "d51de5bb-3488-439f-ab2e-001e28311352",
        "meta": {
          "profile": [
            "http://hl7.org/fhir/StructureDefinition/heartrate"
          ]
        },
        "status": "final",
        "category": [
          {
            "coding": [
              {
                "system": "http://terminology.hl7.org/CodeSystem/observation-category",
                "code": "vital-signs",
                "display": "Vital Signs",
                "userSelected": true
              }
            ]
          }
        ],
        "code": {
          "coding": [
            {
              "system": "http://loinc.org",
              "code": "8867-4",
              "display": "Heart rate"
            }
          ]
        },
        "subject": {
          "reference": "Patient/e50e94d0-b676-4df8-971c-72950e4a8fa7"
        },
        "effectiveDateTime": "2025-07-21T08:15:00.000Z",
        "issued": "2025-07-21T08:15:00.000Z",
        "valueQuantity": {
          "value": 80,
          "unit": "/min",
          "system": "http://unitsofmeasure.org",
          "code": "/min"
        }
      },
      "request": {
        "method": "PUT",
        "url": "Observation/d51de5bb-3488-439f-ab2e-001e28311352"
      }
    },
    {
      "fullUrl": "https://madie.cms.gov/Organization/c9512166-25fb-431d-9670-d2fc2fa5bea9",
      "resource": {
        "resourceType": "Organization",
        "id": "c9512166-25fb-431d-9670-d2fc2fa5bea9",
        "meta": {
          "profile": [
            "http://hl7.org/fhir/us/qicore/StructureDefinition/qicore-organization"
          ]
        },
        "identifier": [
          {
            "use": "temp",
            "system": "urn:oid:2.16.840.1.113883.4.4",
            "value": "21-3259825"
          }
        ],
        "active": true,
        "type": [
          {
            "coding": [
              {
                "system": "http://terminology.hl7.org/CodeSystem/organization-type",
                "code": "pay",
                "display": "Payer"
              }
            ]
          }
        ],
        "name": "Blue Cross Blue Shield of Texas",
        "telecom": [
          {
            "system": "phone",
            "value": "(+1) 972-766-6900"
          }
        ],
        "address": [
          {
            "use": "billing",
            "type": "postal",
            "line": [
              "P.O. Box 660044"
            ],
            "city": "Dallas",
            "state": "TX",
            "postalCode": "75266-0044",
            "country": "USA"
          }
        ]
      },
      "request": {
        "method": "PUT",
        "url": "Organization/c9512166-25fb-431d-9670-d2fc2fa5bea9"
      }
    },
    {
      "fullUrl": "https://madie.cms.gov/Practitioner/906c1186-3fb1-40d7-8bc5-1da536915c90",
      "resource": {
        "resourceType": "Practitioner",
        "id": "906c1186-3fb1-40d7-8bc5-1da536915c90",
        "meta": {
          "profile": [
            "http://hl7.org/fhir/us/qicore/StructureDefinition/qicore-practitioner"
          ]
        },
        "identifier": [
          {
            "system": "http://hl7.org/fhir/sid/us-npi",
            "value": "123456"
          }
        ],
        "name": [
          {
            "family": "Evil",
            "prefix": [
              "Dr"
            ]
          }
        ]
      },
      "request": {
        "method": "PUT",
        "url": "Practitioner/906c1186-3fb1-40d7-8bc5-1da536915c90"
      }
    },
    {
      "fullUrl": "https://madie.cms.gov/MeasureReport/3b8c1bbf-c8b8-4a2f-92ab-66f7b0a0bb8d",
      "resource": {
        "resourceType": "MeasureReport",
        "id": "3b8c1bbf-c8b8-4a2f-92ab-66f7b0a0bb8d",
        "meta": {
          "profile": [
            "http://hl7.org/fhir/us/cqfmeasures/StructureDefinition/test-case-cqfm"
          ]
        },
        "contained": [
          {
            "resourceType": "Parameters",
            "id": "45099163-ff5d-4ebc-98e7-953e51f56622-parameters",
            "parameter": [
              {
                "name": "subject",
                "valueString": "e50e94d0-b676-4df8-971c-72950e4a8fa7"
              }
            ]
          }
        ],
        "extension": [
          {
            "url": "http://hl7.org/fhir/us/cqfmeasures/StructureDefinition/cqfm-inputParameters",
            "valueReference": {
              "reference": "#45099163-ff5d-4ebc-98e7-953e51f56622-parameters"
            }
          },
          {
            "url": "http://hl7.org/fhir/us/cqfmeasures/StructureDefinition/cqfm-testCaseDescription",
            "valueMarkdown": "Patient has heart rate exam on admittance. \n "
          }
        ],
        "modifierExtension": [
          {
            "url": "http://hl7.org/fhir/us/cqfmeasures/StructureDefinition/cqfm-isTestCase",
            "valueBoolean": true
          }
        ],
        "status": "complete",
        "type": "individual",
        "measure": "https://madie.cms.gov/Measure/HybridHospitalWideMortalityFHIR",
        "period": {
          "start": "2025-07-01",
          "end": "2026-06-30"
        },
        "group": [
          {
            "population": [
              {
                "code": {
                  "coding": [
                    {
                      "system": "http://terminology.hl7.org/CodeSystem/measure-population",
                      "code": "initial-population",
                      "display": "Initial Population"
                    }
                  ]
                },
                "count": 1
              }
            ]
          }
        ],
        "evaluatedResource": [
          {
            "reference": "Patient/e50e94d0-b676-4df8-971c-72950e4a8fa7"
          },
          {
            "reference": "Encounter/e1d5198f-6ba7-46df-9bad-07bf8a38cca0"
          },
          {
            "reference": "Coverage/8bb0b22c-1105-4999-836c-3324bcbeb720"
          },
          {
            "reference": "Observation/d51de5bb-3488-439f-ab2e-001e28311352"
          },
          {
            "reference": "Organization/c9512166-25fb-431d-9670-d2fc2fa5bea9"
          },
          {
            "reference": "Practitioner/906c1186-3fb1-40d7-8bc5-1da536915c90"
          }
        ]
      },
      "request": {
        "method": "PUT",
        "url": "MeasureReport/3b8c1bbf-c8b8-4a2f-92ab-66f7b0a0bb8d"
      }
    }
  ]
}