{"resourceType":"Bundle","id":"tests-967b2aa8-3a80-47cf-aaa3-ca36989cff4b-bundle","type":"transaction","entry":[{"fullUrl":"https://madie.cms.gov/Patient/967b2aa8-3a80-47cf-aaa3-ca36989cff4b","resource":{"resourceType":"Patient","id":"967b2aa8-3a80-47cf-aaa3-ca36989cff4b","meta":{"profile":["http://hl7.org/fhir/us/qicore/StructureDefinition/qicore-patient"]},"text":{"status":"generated","div":"<div xmlns=\"http://www.w3.org/1999/xhtml\"><div class=\"hapiHeaderText\">ScreAtriNorefAsseModNodxCp2, , <b> </b></div><table class=\"hapiPropertyTable\"><tbody><tr><td>Identifier</td><td>ScreAtriNorefAsseModNodxCp2</td></tr><tr><td>Date of birth</td><td><span>14 May 1950</span></td></tr></tbody></table></div>"},"extension":[{"url":"http://hl7.org/fhir/us/core/StructureDefinition/us-core-race","extension":[{"url":"ombCategory","valueCoding":{"system":"urn:oid:2.16.840.1.113883.6.238","code":"2106-3","display":"White","userSelected":true}},{"url":"text","valueString":"White"}]},{"url":"http://hl7.org/fhir/us/core/StructureDefinition/us-core-ethnicity","extension":[{"url":"ombCategory","valueCoding":{"system":"urn:oid:2.16.840.1.113883.6.238","code":"2186-5","display":"Not Hispanic or Latino","userSelected":true}},{"url":"text","valueString":"Not Hispanic or Latino"}]}],"identifier":[{"type":{"coding":[{"system":"http://terminology.hl7.org/CodeSystem/v2-0203","code":"MR"}]},"system":"https://madie.cms.gov/","value":"ScreAtriNorefAsseModNodxCp2"}],"active":true,"name":[{"use":"usual","text":"ScreAtriNorefAsseModNodxCp2","family":"DENOMPass4","given":["ScreAtriNorefAsseModNodxCp2DENOMPass4"]}],"gender":"male","birthDate":"1950-05-14","address":[{"text":"ScreAtriNorefAsseModNodxCp2, Screened Not at risk Assessed Severely Malnourished Diagnosed Care Plan, ID=ScreAtriNorefAsseModNodxCp2, DOB: 14 May 1950"}]},"request":{"method":"PUT","url":"Patient/967b2aa8-3a80-47cf-aaa3-ca36989cff4b"}},{"fullUrl":"https://madie.cms.gov/Encounter/4ab8bdbf-1f1f-4c45-8def-633d51ee7c79","resource":{"resourceType":"Encounter","id":"4ab8bdbf-1f1f-4c45-8def-633d51ee7c79","meta":{"profile":["http://hl7.org/fhir/us/qicore/StructureDefinition/qicore-encounter"]},"status":"finished","class":{"system":"http://terminology.hl7.org/CodeSystem/v3-ActCode","code":"IMP","display":"inpatient encounter"},"type":[{"coding":[{"system":"http://snomed.info/sct","code":"183452005"}]}],"subject":{"reference":"Patient/967b2aa8-3a80-47cf-aaa3-ca36989cff4b"},"period":{"start":"2026-02-01T08:00:00.000Z","end":"2026-02-07T08:15:00.000Z"}},"request":{"method":"PUT","url":"Encounter/4ab8bdbf-1f1f-4c45-8def-633d51ee7c79"}},{"fullUrl":"https://madie.cms.gov/Observation/cff91382-f934-4ad6-b6f6-ae5723f1dba0","resource":{"resourceType":"Observation","id":"cff91382-f934-4ad6-b6f6-ae5723f1dba0","meta":{"profile":["http://hl7.org/fhir/us/qicore/StructureDefinition/qicore-observation"]},"status":"final","category":[{"coding":[{"system":"http://terminology.hl7.org/CodeSystem/observation-category","code":"survey","display":"Survey"}]}],"code":{"coding":[{"system":"http://loinc.org","code":"98968-1","display":"Initial screening NRS_2002","userSelected":true}]},"subject":{"reference":"Patient/967b2aa8-3a80-47cf-aaa3-ca36989cff4b"},"effectiveDateTime":"2026-02-01T09:00:00.000+00:00","valueCodeableConcept":{"coding":[{"system":"http://snomed.info/sct","code":"129845004","display":"At risk for imbalanced nutrition, less than body requirements (finding)","userSelected":true}]}},"request":{"method":"PUT","url":"Observation/cff91382-f934-4ad6-b6f6-ae5723f1dba0"}},{"fullUrl":"https://madie.cms.gov/Observation/2e8585f6-c8e0-4b22-90c1-8d6adcbb9b63","resource":{"resourceType":"Observation","id":"2e8585f6-c8e0-4b22-90c1-8d6adcbb9b63","meta":{"profile":["http://hl7.org/fhir/us/qicore/StructureDefinition/qicore-observation"]},"status":"final","category":[{"coding":[{"system":"http://terminology.hl7.org/CodeSystem/observation-category","code":"survey","display":"Survey"}]}],"code":{"coding":[{"system":"http://loinc.org","code":"75282-4","display":"Nutrition assessment panel","userSelected":true}]},"subject":{"reference":"Patient/967b2aa8-3a80-47cf-aaa3-ca36989cff4b"},"effectiveDateTime":"2026-02-01T10:00:00.000+00:00","valueCodeableConcept":{"coding":[{"system":"http://snomed.info/sct","code":"129689002","display":"At risk for nutritional problem (finding)","userSelected":true}]}},"request":{"method":"PUT","url":"Observation/2e8585f6-c8e0-4b22-90c1-8d6adcbb9b63"}},{"fullUrl":"https://madie.cms.gov/Procedure/73886af4-fe65-47fb-a9a2-22e88202fe04","resource":{"resourceType":"Procedure","id":"73886af4-fe65-47fb-a9a2-22e88202fe04","meta":{"profile":["http://hl7.org/fhir/us/qicore/StructureDefinition/qicore-procedure"]},"extension":[{"url":"http://hl7.org/fhir/us/qicore/StructureDefinition/qicore-recorded","valueDateTime":"2026-02-02T11:30:00.000Z"}],"status":"completed","code":{"coding":[{"system":"http://snomed.info/sct","code":"1279742004","display":"Development of a nutrition care plan (procedure)"}],"text":"Development of a nutrition care plan (procedure)"},"subject":{"reference":"Patient/967b2aa8-3a80-47cf-aaa3-ca36989cff4b"},"encounter":{"reference":"Encounter/ScreAtriNorefAsseModNodxCp2DENOMPass4"},"performedPeriod":{"start":"2026-02-01T11:30:00.000Z","end":"2026-02-07T08:15:00.000Z"}},"request":{"method":"PUT","url":"Procedure/73886af4-fe65-47fb-a9a2-22e88202fe04"}},{"fullUrl":"https://madie.cms.gov/Coverage/86aca90b-3d1b-4b6c-869c-6f1a8d2a175e","resource":{"resourceType":"Coverage","id":"86aca90b-3d1b-4b6c-869c-6f1a8d2a175e","meta":{"profile":["http://hl7.org/fhir/us/qicore/StructureDefinition/qicore-coverage"]},"status":"active","type":{"coding":[{"system":"https://nahdo.org/sopt","version":"9.2","code":"11","display":"Medicare Managed Care (Includes Medicare Advantage Plans)"}]},"beneficiary":{"reference":"Patient/967b2aa8-3a80-47cf-aaa3-ca36989cff4b"},"period":{"start":"2024-10-01T00:00:00+00:00"},"payor":[{"reference":"Organization/dcee0869-81a4-4794-8c10-1f9e8c2d18b5"}]},"request":{"method":"PUT","url":"Coverage/86aca90b-3d1b-4b6c-869c-6f1a8d2a175e"}},{"fullUrl":"https://madie.cms.gov/Organization/dcee0869-81a4-4794-8c10-1f9e8c2d18b5","resource":{"resourceType":"Organization","id":"dcee0869-81a4-4794-8c10-1f9e8c2d18b5","meta":{"profile":["http://hl7.org/fhir/us/qicore/StructureDefinition/qicore-organization"]},"identifier":[{"use":"temp","system":"urn:oid:2.16.840.1.113883.4.4","value":"21-3259825"}],"active":true,"type":[{"coding":[{"system":"http://terminology.hl7.org/CodeSystem/organization-type","code":"pay","display":"Payer"}]}],"name":"Blue Cross Blue Shield of Texas","telecom":[{"system":"phone","value":"(+1) 972-766-6900"}],"address":[{"use":"billing","type":"postal","line":["P.O. Box 660044"],"city":"Dallas","state":"TX","postalCode":"75266-0044","country":"USA"}]},"request":{"method":"PUT","url":"Organization/dcee0869-81a4-4794-8c10-1f9e8c2d18b5"}},{"fullUrl":"https://madie.cms.gov/MeasureReport/f5f184e9-8a2d-4714-939c-3897f9d989d3","resource":{"resourceType":"MeasureReport","id":"f5f184e9-8a2d-4714-939c-3897f9d989d3","meta":{"profile":["http://hl7.org/fhir/us/cqfmeasures/StructureDefinition/test-case-cqfm"]},"contained":[{"resourceType":"Parameters","id":"d97b777c-af55-465d-b45f-32de2a25e53f-parameters","parameter":[{"name":"subject","valueString":"967b2aa8-3a80-47cf-aaa3-ca36989cff4b"}]}],"extension":[{"url":"http://hl7.org/fhir/us/cqfmeasures/StructureDefinition/cqfm-inputParameters","valueReference":{"reference":"#d97b777c-af55-465d-b45f-32de2a25e53f-parameters"}},{"url":"http://hl7.org/fhir/us/cqfmeasures/StructureDefinition/cqfm-testCaseDescription","valueMarkdown":"Screened, At Risk, No Referral, Assessed, Moderate Malnutrition, No Diagnosis, Nutrition Care Plan"}],"modifierExtension":[{"url":"http://hl7.org/fhir/us/cqfmeasures/StructureDefinition/cqfm-isTestCase","valueBoolean":true}],"status":"complete","type":"individual","measure":"https://madie.cms.gov/Measure/GlobalMalnutritionCompositeFHIR","period":{"start":"2026-01-01","end":"2026-12-31"},"group":[{"population":[{"code":{"coding":[{"system":"http://terminology.hl7.org/CodeSystem/measure-population","code":"initial-population","display":"Initial Population"}]},"count":1},{"code":{"coding":[{"system":"http://terminology.hl7.org/CodeSystem/measure-population","code":"measure-population","display":"Measure Population"}]},"count":1},{"code":{"coding":[{"system":"http://terminology.hl7.org/CodeSystem/measure-population","code":"measure-population-observation","display":"Measure Population Observation"}]},"count":1}]},{"population":[{"code":{"coding":[{"system":"http://terminology.hl7.org/CodeSystem/measure-population","code":"initial-population","display":"Initial Population"}]},"count":1},{"code":{"coding":[{"system":"http://terminology.hl7.org/CodeSystem/measure-population","code":"measure-population","display":"Measure Population"}]},"count":1},{"code":{"coding":[{"system":"http://terminology.hl7.org/CodeSystem/measure-population","code":"measure-population-observation","display":"Measure Population Observation"}]},"count":0}]},{"population":[{"code":{"coding":[{"system":"http://terminology.hl7.org/CodeSystem/measure-population","code":"initial-population","display":"Initial Population"}]},"count":1},{"code":{"coding":[{"system":"http://terminology.hl7.org/CodeSystem/measure-population","code":"measure-population","display":"Measure Population"}]},"count":1},{"code":{"coding":[{"system":"http://terminology.hl7.org/CodeSystem/measure-population","code":"measure-population-observation","display":"Measure Population Observation"}]},"count":0}]},{"population":[{"code":{"coding":[{"system":"http://terminology.hl7.org/CodeSystem/measure-population","code":"initial-population","display":"Initial Population"}]},"count":1},{"code":{"coding":[{"system":"http://terminology.hl7.org/CodeSystem/measure-population","code":"measure-population","display":"Measure Population"}]},"count":1},{"code":{"coding":[{"system":"http://terminology.hl7.org/CodeSystem/measure-population","code":"measure-population-observation","display":"Measure Population Observation"}]},"count":0}]},{"population":[{"code":{"coding":[{"system":"http://terminology.hl7.org/CodeSystem/measure-population","code":"initial-population","display":"Initial Population"}]},"count":1},{"code":{"coding":[{"system":"http://terminology.hl7.org/CodeSystem/measure-population","code":"measure-population","display":"Measure Population"}]},"count":1},{"code":{"coding":[{"system":"http://terminology.hl7.org/CodeSystem/measure-population","code":"measure-population-observation","display":"Measure Population Observation"}]},"count":1}]},{"population":[{"code":{"coding":[{"system":"http://terminology.hl7.org/CodeSystem/measure-population","code":"initial-population","display":"Initial Population"}]},"count":1},{"code":{"coding":[{"system":"http://terminology.hl7.org/CodeSystem/measure-population","code":"measure-population","display":"Measure Population"}]},"count":1},{"code":{"coding":[{"system":"http://terminology.hl7.org/CodeSystem/measure-population","code":"measure-population-observation","display":"Measure Population Observation"}]},"count":50}]}],"evaluatedResource":[{"reference":"Patient/967b2aa8-3a80-47cf-aaa3-ca36989cff4b"},{"reference":"Encounter/4ab8bdbf-1f1f-4c45-8def-633d51ee7c79"},{"reference":"Observation/cff91382-f934-4ad6-b6f6-ae5723f1dba0"},{"reference":"Observation/2e8585f6-c8e0-4b22-90c1-8d6adcbb9b63"},{"reference":"Procedure/73886af4-fe65-47fb-a9a2-22e88202fe04"},{"reference":"Coverage/86aca90b-3d1b-4b6c-869c-6f1a8d2a175e"},{"reference":"Organization/dcee0869-81a4-4794-8c10-1f9e8c2d18b5"}]},"request":{"method":"PUT","url":"MeasureReport/f5f184e9-8a2d-4714-939c-3897f9d989d3"}}]}