{"resourceType":"Bundle","id":"tests-1317befb-2312-453e-9c46-46c7a8c59240-bundle","type":"transaction","entry":[{"fullUrl":"https://madie.cms.gov/Patient/1317befb-2312-453e-9c46-46c7a8c59240","resource":{"resourceType":"Patient","id":"1317befb-2312-453e-9c46-46c7a8c59240","meta":{"profile":["http://hl7.org/fhir/us/qicore/StructureDefinition/qicore-patient"]},"text":{"status":"generated","div":"<div xmlns=\"http://www.w3.org/1999/xhtml\"><div class=\"hapiHeaderText\">ScreNotatriNorefNoasseNodxNoCP, , <b> </b></div><table class=\"hapiPropertyTable\"><tbody><tr><td>Identifier</td><td>ScreNotatriNorefNoasseNodxNoCP</td></tr><tr><td>Date of birth</td><td><span>14 May 1950</span></td></tr></tbody></table></div>"},"extension":[{"url":"http://hl7.org/fhir/us/core/StructureDefinition/us-core-race","extension":[{"url":"ombCategory","valueCoding":{"system":"urn:oid:2.16.840.1.113883.6.238","code":"1002-5","display":"American Indian or Alaska Native","userSelected":true}},{"url":"text","valueString":"American Indian or Alaska Native"}]},{"url":"http://hl7.org/fhir/us/core/StructureDefinition/us-core-ethnicity","extension":[{"url":"ombCategory","valueCoding":{"system":"urn:oid:2.16.840.1.113883.6.238","code":"2135-2","display":"Hispanic or Latino","userSelected":true}},{"url":"text","valueString":"Hispanic or Latino"}]}],"identifier":[{"type":{"coding":[{"system":"http://terminology.hl7.org/CodeSystem/v2-0203","code":"MR"}]},"system":"https://madie.cms.gov/","value":"ScreNotatriNorefNoasseNodxNoCP"}],"active":true,"name":[{"use":"usual","text":"ScreNotatriNorefNoasseNodxNoCP","family":"denompass1","given":["ScreNotatriNorefNoasseNodxNoCPdenompass1"]}],"gender":"male","birthDate":"1959-11-20","address":[{"text":"ScreNotatriNorefNoasseNodxNoCP, Screened at risk Assessed Severely Malnourished Diagnosed Care Plan, ID=ScreNotatriNorefNoasseNodxNoCP, DOB: 14 May 1950"}]},"request":{"method":"PUT","url":"Patient/1317befb-2312-453e-9c46-46c7a8c59240"}},{"fullUrl":"https://madie.cms.gov/Encounter/10f7acda-9e25-4337-bef9-2250a3b31162","resource":{"resourceType":"Encounter","id":"10f7acda-9e25-4337-bef9-2250a3b31162","meta":{"profile":["http://hl7.org/fhir/us/qicore/StructureDefinition/qicore-encounter"]},"status":"finished","class":{"system":"http://terminology.hl7.org/CodeSystem/v3-ActCode","code":"IMP","display":"inpatient encounter"},"type":[{"coding":[{"system":"http://snomed.info/sct","code":"183452005"}]}],"subject":{"reference":"Patient/1317befb-2312-453e-9c46-46c7a8c59240"},"period":{"start":"2026-02-01T08:00:00.000Z","end":"2026-02-07T08:15:00.000Z"}},"request":{"method":"PUT","url":"Encounter/10f7acda-9e25-4337-bef9-2250a3b31162"}},{"fullUrl":"https://madie.cms.gov/Observation/fdc11cea-c096-4737-bf4d-ee70fd6c565e","resource":{"resourceType":"Observation","id":"fdc11cea-c096-4737-bf4d-ee70fd6c565e","meta":{"profile":["http://hl7.org/fhir/us/qicore/StructureDefinition/qicore-observation"]},"status":"final","category":[{"coding":[{"system":"http://terminology.hl7.org/CodeSystem/observation-category","code":"survey","display":"Survey"}]}],"code":{"coding":[{"system":"http://loinc.org","code":"98967-3","display":"Nutritional Risk Screening 2002 panel","userSelected":true}]},"subject":{"reference":"Patient/1317befb-2312-453e-9c46-46c7a8c59240"},"effectiveDateTime":"2026-02-02T09:00:00.000+00:00","valueCodeableConcept":{"coding":[{"system":"http://loinc.org","code":"LA33699-2","display":"Not at risk for malnutrition","userSelected":true}]}},"request":{"method":"PUT","url":"Observation/fdc11cea-c096-4737-bf4d-ee70fd6c565e"}},{"fullUrl":"https://madie.cms.gov/Coverage/5bb348b0-a0ed-4cf7-b690-1080d9c5dbd9","resource":{"resourceType":"Coverage","id":"5bb348b0-a0ed-4cf7-b690-1080d9c5dbd9","meta":{"profile":["http://hl7.org/fhir/us/qicore/StructureDefinition/qicore-coverage"]},"status":"active","type":{"coding":[{"system":"https://nahdo.org/sopt","version":"9.2","code":"11","display":"Medicare Managed Care (Includes Medicare Advantage Plans)"}]},"beneficiary":{"reference":"Patient/1317befb-2312-453e-9c46-46c7a8c59240"},"period":{"start":"2024-10-01T00:00:00+00:00"},"payor":[{"reference":"Organization/d345cdd9-323a-4c2b-a17e-a1bc097f98be"}]},"request":{"method":"PUT","url":"Coverage/5bb348b0-a0ed-4cf7-b690-1080d9c5dbd9"}},{"fullUrl":"https://madie.cms.gov/Organization/d345cdd9-323a-4c2b-a17e-a1bc097f98be","resource":{"resourceType":"Organization","id":"d345cdd9-323a-4c2b-a17e-a1bc097f98be","meta":{"profile":["http://hl7.org/fhir/us/qicore/StructureDefinition/qicore-organization"]},"identifier":[{"use":"temp","system":"urn:oid:2.16.840.1.113883.4.4","value":"21-3259825"}],"active":true,"type":[{"coding":[{"system":"http://terminology.hl7.org/CodeSystem/organization-type","code":"pay","display":"Payer"}]}],"name":"Blue Cross Blue Shield of Texas","telecom":[{"system":"phone","value":"(+1) 972-766-6900"}],"address":[{"use":"billing","type":"postal","line":["P.O. Box 660044"],"city":"Dallas","state":"TX","postalCode":"75266-0044","country":"USA"}]},"request":{"method":"PUT","url":"Organization/d345cdd9-323a-4c2b-a17e-a1bc097f98be"}},{"fullUrl":"https://madie.cms.gov/MeasureReport/027a8e3e-8405-4dc8-a5e1-c8cc5bbeda43","resource":{"resourceType":"MeasureReport","id":"027a8e3e-8405-4dc8-a5e1-c8cc5bbeda43","meta":{"profile":["http://hl7.org/fhir/us/cqfmeasures/StructureDefinition/test-case-cqfm"]},"contained":[{"resourceType":"Parameters","id":"25d64663-ae40-4189-8c06-96f5fbe1fad7-parameters","parameter":[{"name":"subject","valueString":"1317befb-2312-453e-9c46-46c7a8c59240"}]}],"extension":[{"url":"http://hl7.org/fhir/us/cqfmeasures/StructureDefinition/cqfm-inputParameters","valueReference":{"reference":"#25d64663-ae40-4189-8c06-96f5fbe1fad7-parameters"}},{"url":"http://hl7.org/fhir/us/cqfmeasures/StructureDefinition/cqfm-testCaseDescription","valueMarkdown":"Screened, Not at Risk, No Referral, No Assessment, No Diagnosis, No Nutrition Care Plan"}],"modifierExtension":[{"url":"http://hl7.org/fhir/us/cqfmeasures/StructureDefinition/cqfm-isTestCase","valueBoolean":true}],"status":"complete","type":"individual","measure":"https://madie.cms.gov/Measure/GlobalMalnutritionCompositeFHIR","period":{"start":"2026-01-01","end":"2026-12-31"},"group":[{"population":[{"code":{"coding":[{"system":"http://terminology.hl7.org/CodeSystem/measure-population","code":"initial-population","display":"Initial Population"}]},"count":1},{"code":{"coding":[{"system":"http://terminology.hl7.org/CodeSystem/measure-population","code":"measure-population","display":"Measure Population"}]},"count":1},{"code":{"coding":[{"system":"http://terminology.hl7.org/CodeSystem/measure-population","code":"measure-population-observation","display":"Measure Population Observation"}]},"count":1}]},{"population":[{"code":{"coding":[{"system":"http://terminology.hl7.org/CodeSystem/measure-population","code":"initial-population","display":"Initial Population"}]},"count":1},{"code":{"coding":[{"system":"http://terminology.hl7.org/CodeSystem/measure-population","code":"measure-population","display":"Measure Population"}]},"count":1},{"code":{"coding":[{"system":"http://terminology.hl7.org/CodeSystem/measure-population","code":"measure-population-observation","display":"Measure Population Observation"}]},"count":0}]},{"population":[{"code":{"coding":[{"system":"http://terminology.hl7.org/CodeSystem/measure-population","code":"initial-population","display":"Initial Population"}]},"count":1},{"code":{"coding":[{"system":"http://terminology.hl7.org/CodeSystem/measure-population","code":"measure-population","display":"Measure Population"}]},"count":1},{"code":{"coding":[{"system":"http://terminology.hl7.org/CodeSystem/measure-population","code":"measure-population-observation","display":"Measure Population Observation"}]},"count":0}]},{"population":[{"code":{"coding":[{"system":"http://terminology.hl7.org/CodeSystem/measure-population","code":"initial-population","display":"Initial Population"}]},"count":1},{"code":{"coding":[{"system":"http://terminology.hl7.org/CodeSystem/measure-population","code":"measure-population","display":"Measure Population"}]},"count":1},{"code":{"coding":[{"system":"http://terminology.hl7.org/CodeSystem/measure-population","code":"measure-population-observation","display":"Measure Population Observation"}]},"count":0}]},{"population":[{"code":{"coding":[{"system":"http://terminology.hl7.org/CodeSystem/measure-population","code":"initial-population","display":"Initial Population"}]},"count":1},{"code":{"coding":[{"system":"http://terminology.hl7.org/CodeSystem/measure-population","code":"measure-population","display":"Measure Population"}]},"count":1},{"code":{"coding":[{"system":"http://terminology.hl7.org/CodeSystem/measure-population","code":"measure-population-observation","display":"Measure Population Observation"}]},"count":1}]},{"population":[{"code":{"coding":[{"system":"http://terminology.hl7.org/CodeSystem/measure-population","code":"initial-population","display":"Initial Population"}]},"count":1},{"code":{"coding":[{"system":"http://terminology.hl7.org/CodeSystem/measure-population","code":"measure-population","display":"Measure Population"}]},"count":1},{"code":{"coding":[{"system":"http://terminology.hl7.org/CodeSystem/measure-population","code":"measure-population-observation","display":"Measure Population Observation"}]},"count":100}]}],"evaluatedResource":[{"reference":"Patient/1317befb-2312-453e-9c46-46c7a8c59240"},{"reference":"Encounter/10f7acda-9e25-4337-bef9-2250a3b31162"},{"reference":"Observation/fdc11cea-c096-4737-bf4d-ee70fd6c565e"},{"reference":"Coverage/5bb348b0-a0ed-4cf7-b690-1080d9c5dbd9"},{"reference":"Organization/d345cdd9-323a-4c2b-a17e-a1bc097f98be"}]},"request":{"method":"PUT","url":"MeasureReport/027a8e3e-8405-4dc8-a5e1-c8cc5bbeda43"}}]}