{"resourceType":"Bundle","id":"tests-487a8227-4403-4d47-97ee-19f285609128-bundle","type":"transaction","entry":[{"fullUrl":"https://madie.cms.gov/Patient/487a8227-4403-4d47-97ee-19f285609128","resource":{"resourceType":"Patient","id":"487a8227-4403-4d47-97ee-19f285609128","meta":{"profile":["http://hl7.org/fhir/us/qicore/StructureDefinition/qicore-patient"]},"text":{"status":"generated","div":"<div xmlns=\"http://www.w3.org/1999/xhtml\"><div class=\"hapiHeaderText\">NoscreNorefAsseModDxCp2, , <b> </b></div><table class=\"hapiPropertyTable\"><tbody><tr><td>Identifier</td><td>NoscreNorefAsseModDxCp2</td></tr><tr><td>Date of birth</td><td><span>14 May 1950</span></td></tr></tbody></table></div>"},"extension":[{"url":"http://hl7.org/fhir/us/core/StructureDefinition/us-core-race","extension":[{"url":"ombCategory","valueCoding":{"system":"urn:oid:2.16.840.1.113883.6.238","code":"2054-5","display":"Black","userSelected":true}},{"url":"text","valueString":"Black"}]},{"url":"http://hl7.org/fhir/us/core/StructureDefinition/us-core-ethnicity","extension":[{"url":"ombCategory","valueCoding":{"system":"urn:oid:2.16.840.1.113883.6.238","code":"2135-2","display":"Hispanic or Latino","userSelected":true}},{"url":"text","valueString":"Hispanic or Latino"}]}],"identifier":[{"type":{"coding":[{"system":"http://terminology.hl7.org/CodeSystem/v2-0203","code":"MR"}]},"system":"https://madie.cms.gov/","value":"NoscreNorefAsseModDxCp2"}],"active":true,"name":[{"use":"usual","text":"NoscreNorefAsseModDxCp2","family":"OCCURPass1","given":["NoscreNorefAsseModDxCp2OCCURPass1"]}],"gender":"male","birthDate":"1959-01-01","address":[{"text":"NoscreNorefAsseModDxCp2, Screened Not at risk Assessed Severely Malnourished Diagnosed Care Plan, ID=NoscreNorefAsseModDxCp2, DOB: 14 May 1950"}]},"request":{"method":"PUT","url":"Patient/487a8227-4403-4d47-97ee-19f285609128"}},{"fullUrl":"https://madie.cms.gov/Encounter/abe9f935-d789-4d0d-940a-62f22b65624a","resource":{"resourceType":"Encounter","id":"abe9f935-d789-4d0d-940a-62f22b65624a","meta":{"profile":["http://hl7.org/fhir/us/qicore/StructureDefinition/qicore-encounter"]},"status":"finished","class":{"system":"http://terminology.hl7.org/CodeSystem/v3-ActCode","code":"IMP","display":"inpatient encounter"},"type":[{"coding":[{"system":"http://snomed.info/sct","code":"183452005"}]}],"subject":{"reference":"Patient/487a8227-4403-4d47-97ee-19f285609128"},"period":{"start":"2026-02-01T08:00:00.000Z","end":"2026-02-07T08:15:00.000Z"}},"request":{"method":"PUT","url":"Encounter/abe9f935-d789-4d0d-940a-62f22b65624a"}},{"fullUrl":"https://madie.cms.gov/Condition/1d71facd-6f42-4a6a-801c-f47a62fd23f0","resource":{"resourceType":"Condition","id":"1d71facd-6f42-4a6a-801c-f47a62fd23f0","meta":{"profile":["http://hl7.org/fhir/us/qicore/StructureDefinition/qicore-condition"]},"clinicalStatus":{"coding":[{"system":"http://terminology.hl7.org/CodeSystem/condition-clinical","code":"active","display":"Active","userSelected":true}]},"verificationStatus":{"coding":[{"system":"http://terminology.hl7.org/CodeSystem/condition-ver-status","code":"confirmed","display":"Confirmed","userSelected":true}]},"category":[{"coding":[{"system":"http://terminology.hl7.org/CodeSystem/condition-category","code":"encounter-diagnosis","display":"Encounter Diagnosis","userSelected":true}]}],"code":{"coding":[{"system":"http://hl7.org/fhir/sid/icd-10-cm","code":"T73.0XXS","display":"Starvation, sequela (disorder)","userSelected":true}]},"subject":{"reference":"Patient/487a8227-4403-4d47-97ee-19f285609128"},"onsetPeriod":{"start":"2026-02-01T08:00:00.000+00:00"},"recordedDate":"2026-02-01T11:00:00.000+00:00"},"request":{"method":"PUT","url":"Condition/1d71facd-6f42-4a6a-801c-f47a62fd23f0"}},{"fullUrl":"https://madie.cms.gov/Observation/79b05e84-e42c-43b0-bc50-ad95dc6308a0","resource":{"resourceType":"Observation","id":"79b05e84-e42c-43b0-bc50-ad95dc6308a0","meta":{"profile":["http://hl7.org/fhir/us/qicore/StructureDefinition/qicore-observation"]},"status":"final","category":[{"coding":[{"system":"http://terminology.hl7.org/CodeSystem/observation-category","code":"survey","display":"Survey"}]}],"code":{"coding":[{"system":"http://loinc.org","code":"75304-6","display":"Nutrition assessment panel","userSelected":true}]},"subject":{"reference":"Patient/487a8227-4403-4d47-97ee-19f285609128"},"effectiveDateTime":"2026-02-01T10:00:00.000+00:00","valueCodeableConcept":{"coding":[{"system":"http://snomed.info/sct","code":"102635008","display":"Acute nutritional deficiency (finding)","userSelected":true}]}},"request":{"method":"PUT","url":"Observation/79b05e84-e42c-43b0-bc50-ad95dc6308a0"}},{"fullUrl":"https://madie.cms.gov/Procedure/be9313c8-7399-4a5f-b914-bba3caff0123","resource":{"resourceType":"Procedure","id":"be9313c8-7399-4a5f-b914-bba3caff0123","meta":{"profile":["http://hl7.org/fhir/us/qicore/StructureDefinition/qicore-procedure"]},"extension":[{"url":"http://hl7.org/fhir/us/qicore/StructureDefinition/qicore-recorded","valueDateTime":"2025-02-02T11:30:00.000Z"}],"status":"completed","code":{"coding":[{"system":"http://snomed.info/sct","code":"38672009","display":"Nutrition management (regime/therapy)"}],"text":"Nutrition management (regime/therapy)"},"subject":{"reference":"Patient/487a8227-4403-4d47-97ee-19f285609128"},"encounter":{"reference":"Encounter/NoscreNorefAsseModDxCp2OCCURPass1"},"performedPeriod":{"start":"2026-02-01T11:30:00.000Z","end":"2026-02-07T08:15:00.000Z"}},"request":{"method":"PUT","url":"Procedure/be9313c8-7399-4a5f-b914-bba3caff0123"}},{"fullUrl":"https://madie.cms.gov/Coverage/e8163e64-2d08-4a0c-8804-d3051237f87e","resource":{"resourceType":"Coverage","id":"e8163e64-2d08-4a0c-8804-d3051237f87e","meta":{"profile":["http://hl7.org/fhir/us/qicore/StructureDefinition/qicore-coverage"]},"status":"active","type":{"coding":[{"system":"https://nahdo.org/sopt","version":"9.2","code":"11","display":"Medicare Managed Care (Includes Medicare Advantage Plans)"}]},"beneficiary":{"reference":"Patient/487a8227-4403-4d47-97ee-19f285609128"},"period":{"start":"2025-10-01T00:00:00+00:00"},"payor":[{"reference":"Organization/35a00639-0652-46c0-ad3f-a27d07ffb476"}]},"request":{"method":"PUT","url":"Coverage/e8163e64-2d08-4a0c-8804-d3051237f87e"}},{"fullUrl":"https://madie.cms.gov/Organization/35a00639-0652-46c0-ad3f-a27d07ffb476","resource":{"resourceType":"Organization","id":"35a00639-0652-46c0-ad3f-a27d07ffb476","meta":{"profile":["http://hl7.org/fhir/us/qicore/StructureDefinition/qicore-organization"]},"identifier":[{"use":"temp","system":"urn:oid:2.16.840.1.113883.4.4","value":"21-3259825"}],"active":true,"type":[{"coding":[{"system":"http://terminology.hl7.org/CodeSystem/organization-type","code":"pay","display":"Payer"}]}],"name":"Blue Cross Blue Shield of Texas","telecom":[{"system":"phone","value":"(+1) 972-766-6900"}],"address":[{"use":"billing","type":"postal","line":["P.O. Box 660044"],"city":"Dallas","state":"TX","postalCode":"75266-0044","country":"USA"}]},"request":{"method":"PUT","url":"Organization/35a00639-0652-46c0-ad3f-a27d07ffb476"}},{"fullUrl":"https://madie.cms.gov/MeasureReport/164fb806-9325-4e14-a146-61f262851125","resource":{"resourceType":"MeasureReport","id":"164fb806-9325-4e14-a146-61f262851125","meta":{"profile":["http://hl7.org/fhir/us/cqfmeasures/StructureDefinition/test-case-cqfm"]},"contained":[{"resourceType":"Parameters","id":"eae092b2-9daf-450c-854a-b0df7dab722a-parameters","parameter":[{"name":"subject","valueString":"487a8227-4403-4d47-97ee-19f285609128"}]}],"extension":[{"url":"http://hl7.org/fhir/us/cqfmeasures/StructureDefinition/cqfm-inputParameters","valueReference":{"reference":"#eae092b2-9daf-450c-854a-b0df7dab722a-parameters"}},{"url":"http://hl7.org/fhir/us/cqfmeasures/StructureDefinition/cqfm-testCaseDescription","valueMarkdown":"No screen, No referral, Assessed, Moderate Malnutrition, Diagnosis, Nutrition Care Plan"}],"modifierExtension":[{"url":"http://hl7.org/fhir/us/cqfmeasures/StructureDefinition/cqfm-isTestCase","valueBoolean":true}],"status":"complete","type":"individual","measure":"https://madie.cms.gov/Measure/GlobalMalnutritionCompositeFHIR","period":{"start":"2026-01-01","end":"2026-12-31"},"group":[{"population":[{"code":{"coding":[{"system":"http://terminology.hl7.org/CodeSystem/measure-population","code":"initial-population","display":"Initial Population"}]},"count":1},{"code":{"coding":[{"system":"http://terminology.hl7.org/CodeSystem/measure-population","code":"measure-population","display":"Measure Population"}]},"count":1},{"code":{"coding":[{"system":"http://terminology.hl7.org/CodeSystem/measure-population","code":"measure-population-observation","display":"Measure Population Observation"}]},"count":0}]},{"population":[{"code":{"coding":[{"system":"http://terminology.hl7.org/CodeSystem/measure-population","code":"initial-population","display":"Initial Population"}]},"count":1},{"code":{"coding":[{"system":"http://terminology.hl7.org/CodeSystem/measure-population","code":"measure-population","display":"Measure Population"}]},"count":1},{"code":{"coding":[{"system":"http://terminology.hl7.org/CodeSystem/measure-population","code":"measure-population-observation","display":"Measure Population Observation"}]},"count":0}]},{"population":[{"code":{"coding":[{"system":"http://terminology.hl7.org/CodeSystem/measure-population","code":"initial-population","display":"Initial Population"}]},"count":1},{"code":{"coding":[{"system":"http://terminology.hl7.org/CodeSystem/measure-population","code":"measure-population","display":"Measure Population"}]},"count":1},{"code":{"coding":[{"system":"http://terminology.hl7.org/CodeSystem/measure-population","code":"measure-population-observation","display":"Measure Population Observation"}]},"count":0}]},{"population":[{"code":{"coding":[{"system":"http://terminology.hl7.org/CodeSystem/measure-population","code":"initial-population","display":"Initial Population"}]},"count":1},{"code":{"coding":[{"system":"http://terminology.hl7.org/CodeSystem/measure-population","code":"measure-population","display":"Measure Population"}]},"count":1},{"code":{"coding":[{"system":"http://terminology.hl7.org/CodeSystem/measure-population","code":"measure-population-observation","display":"Measure Population Observation"}]},"count":0}]},{"population":[{"code":{"coding":[{"system":"http://terminology.hl7.org/CodeSystem/measure-population","code":"initial-population","display":"Initial Population"}]},"count":1},{"code":{"coding":[{"system":"http://terminology.hl7.org/CodeSystem/measure-population","code":"measure-population","display":"Measure Population"}]},"count":1},{"code":{"coding":[{"system":"http://terminology.hl7.org/CodeSystem/measure-population","code":"measure-population-observation","display":"Measure Population Observation"}]},"count":0}]},{"population":[{"code":{"coding":[{"system":"http://terminology.hl7.org/CodeSystem/measure-population","code":"initial-population","display":"Initial Population"}]},"count":1},{"code":{"coding":[{"system":"http://terminology.hl7.org/CodeSystem/measure-population","code":"measure-population","display":"Measure Population"}]},"count":1},{"code":{"coding":[{"system":"http://terminology.hl7.org/CodeSystem/measure-population","code":"measure-population-observation","display":"Measure Population Observation"}]},"count":0}]}],"evaluatedResource":[{"reference":"Patient/487a8227-4403-4d47-97ee-19f285609128"},{"reference":"Encounter/abe9f935-d789-4d0d-940a-62f22b65624a"},{"reference":"Condition/1d71facd-6f42-4a6a-801c-f47a62fd23f0"},{"reference":"Observation/79b05e84-e42c-43b0-bc50-ad95dc6308a0"},{"reference":"Procedure/be9313c8-7399-4a5f-b914-bba3caff0123"},{"reference":"Coverage/e8163e64-2d08-4a0c-8804-d3051237f87e"},{"reference":"Organization/35a00639-0652-46c0-ad3f-a27d07ffb476"}]},"request":{"method":"PUT","url":"MeasureReport/164fb806-9325-4e14-a146-61f262851125"}}]}