{"resourceType":"Bundle","id":"tests-1518ab69-c22e-4a18-bebd-cb88d70a0ca4-bundle","type":"transaction","entry":[{"fullUrl":"https://madie.cms.gov/Patient/1518ab69-c22e-4a18-bebd-cb88d70a0ca4","resource":{"resourceType":"Patient","id":"1518ab69-c22e-4a18-bebd-cb88d70a0ca4","meta":{"profile":["http://hl7.org/fhir/us/qicore/StructureDefinition/qicore-patient"]},"text":{"status":"generated","div":"<div xmlns=\"http://www.w3.org/1999/xhtml\"><div class=\"hapiHeaderText\">ScreAtriRefNoasseDxNoCp2, , <b> </b></div><table class=\"hapiPropertyTable\"><tbody><tr><td>Identifier</td><td>ScreAtriRefNoasseDxNoCp2</td></tr><tr><td>Date of birth</td><td><span>14 May 1950</span></td></tr></tbody></table></div>"},"extension":[{"url":"http://hl7.org/fhir/us/core/StructureDefinition/us-core-race","extension":[{"url":"ombCategory","valueCoding":{"system":"urn:oid:2.16.840.1.113883.6.238","code":"2106-3","display":"White","userSelected":true}},{"url":"text","valueString":"White"}]},{"url":"http://hl7.org/fhir/us/core/StructureDefinition/us-core-ethnicity","extension":[{"url":"ombCategory","valueCoding":{"system":"urn:oid:2.16.840.1.113883.6.238","code":"2186-5","display":"Not Hispanic or Latino","userSelected":true}},{"url":"text","valueString":"Not Hispanic or Latino"}]}],"identifier":[{"type":{"coding":[{"system":"http://terminology.hl7.org/CodeSystem/v2-0203","code":"MR"}]},"system":"https://madie.cms.gov/","value":"ScreAtriRefNoasseDxNoCp2"}],"active":true,"name":[{"use":"usual","text":"ScreAtriRefNoasseDxNoCp2","family":"OCCURPass2","given":["ScreAtriRefNoasseDxNoCp2DENOMPass2"]}],"gender":"female","birthDate":"1939-01-01","address":[{"text":"ScreAtriRefNoasseDxNoCp2, Screened Not at risk Assessed Severely Malnourished Diagnosed Care Plan, ID=ScreAtriRefNoasseDxNoCp2, DOB: 14 May 1950"}]},"request":{"method":"PUT","url":"Patient/1518ab69-c22e-4a18-bebd-cb88d70a0ca4"}},{"fullUrl":"https://madie.cms.gov/Encounter/c761d0bf-ed0c-420e-af40-12d0d2363974","resource":{"resourceType":"Encounter","id":"c761d0bf-ed0c-420e-af40-12d0d2363974","meta":{"profile":["http://hl7.org/fhir/us/qicore/StructureDefinition/qicore-encounter"]},"status":"finished","class":{"system":"http://terminology.hl7.org/CodeSystem/v3-ActCode","code":"IMP","display":"inpatient encounter"},"type":[{"coding":[{"system":"http://snomed.info/sct","code":"183452005"}]}],"subject":{"reference":"Patient/1518ab69-c22e-4a18-bebd-cb88d70a0ca4"},"period":{"start":"2026-02-01T08:00:00.000Z","end":"2026-02-07T08:15:00.000Z"}},"request":{"method":"PUT","url":"Encounter/c761d0bf-ed0c-420e-af40-12d0d2363974"}},{"fullUrl":"https://madie.cms.gov/Encounter/9b502ae7-fcb8-4bbe-b988-f914a26a8926","resource":{"resourceType":"Encounter","id":"9b502ae7-fcb8-4bbe-b988-f914a26a8926","meta":{"profile":["http://hl7.org/fhir/us/qicore/StructureDefinition/qicore-encounter"]},"status":"finished","class":{"system":"http://terminology.hl7.org/CodeSystem/v3-ActCode","code":"IMP","display":"admission to observation unit (procedure)"},"type":[{"coding":[{"system":"http://snomed.info/sct","code":"448951000124107"}]}],"subject":{"reference":"Patient/1518ab69-c22e-4a18-bebd-cb88d70a0ca4"},"period":{"start":"2026-01-20T08:00:00.000Z","end":"2026-02-01T08:00:00.000Z"}},"request":{"method":"PUT","url":"Encounter/9b502ae7-fcb8-4bbe-b988-f914a26a8926"}},{"fullUrl":"https://madie.cms.gov/Condition/7c7f724b-a208-41ff-8ac2-210cf7192870","resource":{"resourceType":"Condition","id":"7c7f724b-a208-41ff-8ac2-210cf7192870","meta":{"profile":["http://hl7.org/fhir/us/qicore/StructureDefinition/qicore-condition"]},"clinicalStatus":{"coding":[{"system":"http://terminology.hl7.org/CodeSystem/condition-clinical","code":"active","display":"Active","userSelected":true}]},"verificationStatus":{"coding":[{"system":"http://terminology.hl7.org/CodeSystem/condition-ver-status","code":"confirmed","display":"Confirmed","userSelected":true}]},"category":[{"coding":[{"system":"http://terminology.hl7.org/CodeSystem/condition-category","code":"encounter-diagnosis","display":"Encounter Diagnosis","userSelected":true}]}],"code":{"coding":[{"system":"http://hl7.org/fhir/sid/icd-10-cm","code":"T73.0XXA","display":"Starvation, initial encounter","userSelected":true}]},"subject":{"reference":"Patient/1518ab69-c22e-4a18-bebd-cb88d70a0ca4"},"onsetPeriod":{"start":"2026-01-22T08:00:00.000+00:00"},"recordedDate":"2026-01-22T11:00:00.000+00:00"},"request":{"method":"PUT","url":"Condition/7c7f724b-a208-41ff-8ac2-210cf7192870"}},{"fullUrl":"https://madie.cms.gov/Observation/aa0bc77e-cd14-48fa-80e4-dcaaa717b1dc","resource":{"resourceType":"Observation","id":"aa0bc77e-cd14-48fa-80e4-dcaaa717b1dc","meta":{"profile":["http://hl7.org/fhir/us/qicore/StructureDefinition/qicore-observation"]},"status":"final","category":[{"coding":[{"system":"http://terminology.hl7.org/CodeSystem/observation-category","code":"survey","display":"Survey"}]}],"code":{"coding":[{"system":"http://loinc.org","code":"98967-3","display":"Nutritional Risk Screening 2002 panel","userSelected":true}]},"subject":{"reference":"Patient/1518ab69-c22e-4a18-bebd-cb88d70a0ca4"},"effectiveDateTime":"2026-01-22T09:00:00.000+00:00","valueCodeableConcept":{"coding":[{"system":"http://snomed.info/sct","code":"129689002","display":"At risk for nutritional problem (finding)","userSelected":true}]}},"request":{"method":"PUT","url":"Observation/aa0bc77e-cd14-48fa-80e4-dcaaa717b1dc"}},{"fullUrl":"https://madie.cms.gov/Procedure/62ec91c1-cb4f-4a9b-9d1c-38afe52cafd5","resource":{"resourceType":"Procedure","id":"62ec91c1-cb4f-4a9b-9d1c-38afe52cafd5","meta":{"profile":["http://hl7.org/fhir/us/qicore/StructureDefinition/qicore-procedure"]},"extension":[{"url":"http://hl7.org/fhir/us/qicore/StructureDefinition/qicore-recorded","valueDateTime":"2026-01-22T11:30:00.000Z"}],"status":"completed","code":{"coding":[{"system":"http://snomed.info/sct","code":"306165000","display":"Referral to hospital-based dietetics service (procedure)"}],"text":"Referral to hospital-based dietetics service (procedure)"},"subject":{"reference":"Patient/1518ab69-c22e-4a18-bebd-cb88d70a0ca4"},"encounter":{"reference":"Encounter/ScreAtriRefNoasseDxNoCp2DENOMPass2"},"performedPeriod":{"start":"2026-01-22T11:30:00.000Z","end":"2026-01-23T08:15:00.000Z"}},"request":{"method":"PUT","url":"Procedure/62ec91c1-cb4f-4a9b-9d1c-38afe52cafd5"}},{"fullUrl":"https://madie.cms.gov/Procedure/d176cb75-6390-4f64-84c2-621dfc38f120","resource":{"resourceType":"Procedure","id":"d176cb75-6390-4f64-84c2-621dfc38f120","meta":{"profile":["http://hl7.org/fhir/us/qicore/StructureDefinition/qicore-procedure"]},"extension":[{"url":"http://hl7.org/fhir/us/qicore/StructureDefinition/qicore-recorded","valueDateTime":"2026-02-02T11:30:00.000Z"}],"status":"completed","code":{"coding":[{"system":"http://snomed.info/sct","code":"1279742004","display":"Development of nutrition care plan (procedure)"}],"text":"Development of nutrition care plan (procedure)"},"subject":{"reference":"Patient/1518ab69-c22e-4a18-bebd-cb88d70a0ca4"},"encounter":{"reference":"Encounter/ScreAtriRefNoasseDxNoCp2DENOMPass2"},"performedPeriod":{"start":"2026-01-22T11:30:00.000Z","end":"2026-01-24T08:15:00.000Z"}},"request":{"method":"PUT","url":"Procedure/d176cb75-6390-4f64-84c2-621dfc38f120"}},{"fullUrl":"https://madie.cms.gov/Coverage/b1b7a9a0-1729-4481-922a-f83e0de4ff51","resource":{"resourceType":"Coverage","id":"b1b7a9a0-1729-4481-922a-f83e0de4ff51","meta":{"profile":["http://hl7.org/fhir/us/qicore/StructureDefinition/qicore-coverage"]},"status":"active","type":{"coding":[{"system":"https://nahdo.org/sopt","version":"9.2","code":"11","display":"Medicare Managed Care (Includes Medicare Advantage Plans)"}]},"beneficiary":{"reference":"Patient/1518ab69-c22e-4a18-bebd-cb88d70a0ca4"},"period":{"start":"2024-10-01T00:00:00+00:00"},"payor":[{"reference":"Organization/ac6f0c8b-43da-4107-8ddc-bf3f46bf780c"}]},"request":{"method":"PUT","url":"Coverage/b1b7a9a0-1729-4481-922a-f83e0de4ff51"}},{"fullUrl":"https://madie.cms.gov/Organization/ac6f0c8b-43da-4107-8ddc-bf3f46bf780c","resource":{"resourceType":"Organization","id":"ac6f0c8b-43da-4107-8ddc-bf3f46bf780c","meta":{"profile":["http://hl7.org/fhir/us/qicore/StructureDefinition/qicore-organization"]},"identifier":[{"use":"temp","system":"urn:oid:2.16.840.1.113883.4.4","value":"21-3259825"}],"active":true,"type":[{"coding":[{"system":"http://terminology.hl7.org/CodeSystem/organization-type","code":"pay","display":"Payer"}]}],"name":"Blue Cross Blue Shield of Texas","telecom":[{"system":"phone","value":"(+1) 972-766-6900"}],"address":[{"use":"billing","type":"postal","line":["P.O. Box 660044"],"city":"Dallas","state":"TX","postalCode":"75266-0044","country":"USA"}]},"request":{"method":"PUT","url":"Organization/ac6f0c8b-43da-4107-8ddc-bf3f46bf780c"}},{"fullUrl":"https://madie.cms.gov/MeasureReport/455d1e63-ea7f-4107-ab81-05a6fc8420d2","resource":{"resourceType":"MeasureReport","id":"455d1e63-ea7f-4107-ab81-05a6fc8420d2","meta":{"profile":["http://hl7.org/fhir/us/cqfmeasures/StructureDefinition/test-case-cqfm"]},"contained":[{"resourceType":"Parameters","id":"9770c3eb-85c9-432b-b6f9-e4926fa80828-parameters","parameter":[{"name":"subject","valueString":"1518ab69-c22e-4a18-bebd-cb88d70a0ca4"}]}],"extension":[{"url":"http://hl7.org/fhir/us/cqfmeasures/StructureDefinition/cqfm-inputParameters","valueReference":{"reference":"#9770c3eb-85c9-432b-b6f9-e4926fa80828-parameters"}},{"url":"http://hl7.org/fhir/us/cqfmeasures/StructureDefinition/cqfm-testCaseDescription","valueMarkdown":"Screened, at risk, Referral, No assessment, DX, CP"}],"modifierExtension":[{"url":"http://hl7.org/fhir/us/cqfmeasures/StructureDefinition/cqfm-isTestCase","valueBoolean":true}],"status":"complete","type":"individual","measure":"https://madie.cms.gov/Measure/GlobalMalnutritionCompositeFHIR","period":{"start":"2026-01-01","end":"2026-12-31"},"group":[{"population":[{"code":{"coding":[{"system":"http://terminology.hl7.org/CodeSystem/measure-population","code":"initial-population","display":"Initial Population"}]},"count":1},{"code":{"coding":[{"system":"http://terminology.hl7.org/CodeSystem/measure-population","code":"measure-population","display":"Measure Population"}]},"count":1},{"code":{"coding":[{"system":"http://terminology.hl7.org/CodeSystem/measure-population","code":"measure-population-observation","display":"Measure Population Observation"}]},"count":1}]},{"population":[{"code":{"coding":[{"system":"http://terminology.hl7.org/CodeSystem/measure-population","code":"initial-population","display":"Initial Population"}]},"count":1},{"code":{"coding":[{"system":"http://terminology.hl7.org/CodeSystem/measure-population","code":"measure-population","display":"Measure Population"}]},"count":1},{"code":{"coding":[{"system":"http://terminology.hl7.org/CodeSystem/measure-population","code":"measure-population-observation","display":"Measure Population Observation"}]},"count":0}]},{"population":[{"code":{"coding":[{"system":"http://terminology.hl7.org/CodeSystem/measure-population","code":"initial-population","display":"Initial Population"}]},"count":1},{"code":{"coding":[{"system":"http://terminology.hl7.org/CodeSystem/measure-population","code":"measure-population","display":"Measure Population"}]},"count":1},{"code":{"coding":[{"system":"http://terminology.hl7.org/CodeSystem/measure-population","code":"measure-population-observation","display":"Measure Population Observation"}]},"count":0}]},{"population":[{"code":{"coding":[{"system":"http://terminology.hl7.org/CodeSystem/measure-population","code":"initial-population","display":"Initial Population"}]},"count":1},{"code":{"coding":[{"system":"http://terminology.hl7.org/CodeSystem/measure-population","code":"measure-population","display":"Measure Population"}]},"count":1},{"code":{"coding":[{"system":"http://terminology.hl7.org/CodeSystem/measure-population","code":"measure-population-observation","display":"Measure Population Observation"}]},"count":0}]},{"population":[{"code":{"coding":[{"system":"http://terminology.hl7.org/CodeSystem/measure-population","code":"initial-population","display":"Initial Population"}]},"count":1},{"code":{"coding":[{"system":"http://terminology.hl7.org/CodeSystem/measure-population","code":"measure-population","display":"Measure Population"}]},"count":1},{"code":{"coding":[{"system":"http://terminology.hl7.org/CodeSystem/measure-population","code":"measure-population-observation","display":"Measure Population Observation"}]},"count":1}]},{"population":[{"code":{"coding":[{"system":"http://terminology.hl7.org/CodeSystem/measure-population","code":"initial-population","display":"Initial Population"}]},"count":1},{"code":{"coding":[{"system":"http://terminology.hl7.org/CodeSystem/measure-population","code":"measure-population","display":"Measure Population"}]},"count":1},{"code":{"coding":[{"system":"http://terminology.hl7.org/CodeSystem/measure-population","code":"measure-population-observation","display":"Measure Population Observation"}]},"count":50}]}],"evaluatedResource":[{"reference":"Patient/1518ab69-c22e-4a18-bebd-cb88d70a0ca4"},{"reference":"Encounter/c761d0bf-ed0c-420e-af40-12d0d2363974"},{"reference":"Encounter/9b502ae7-fcb8-4bbe-b988-f914a26a8926"},{"reference":"Condition/7c7f724b-a208-41ff-8ac2-210cf7192870"},{"reference":"Observation/aa0bc77e-cd14-48fa-80e4-dcaaa717b1dc"},{"reference":"Procedure/62ec91c1-cb4f-4a9b-9d1c-38afe52cafd5"},{"reference":"Procedure/d176cb75-6390-4f64-84c2-621dfc38f120"},{"reference":"Coverage/b1b7a9a0-1729-4481-922a-f83e0de4ff51"},{"reference":"Organization/ac6f0c8b-43da-4107-8ddc-bf3f46bf780c"}]},"request":{"method":"PUT","url":"MeasureReport/455d1e63-ea7f-4107-ab81-05a6fc8420d2"}}]}