{"resourceType":"Bundle","id":"tests-4745fe6f-769b-4e1d-aa55-28a3c65b26cd-bundle","type":"transaction","entry":[{"fullUrl":"https://madie.cms.gov/Patient/4745fe6f-769b-4e1d-aa55-28a3c65b26cd","resource":{"resourceType":"Patient","id":"4745fe6f-769b-4e1d-aa55-28a3c65b26cd","meta":{"profile":["http://hl7.org/fhir/us/qicore/StructureDefinition/qicore-patient"]},"text":{"status":"generated","div":"<div xmlns=\"http://www.w3.org/1999/xhtml\"><div class=\"hapiHeaderText\">ScreAtriRefAsseModNodxCp2, , <b> </b></div><table class=\"hapiPropertyTable\"><tbody><tr><td>Identifier</td><td>ScreAtriRefAsseModNodxCp2</td></tr><tr><td>Date of birth</td><td><span>14 May 1950</span></td></tr></tbody></table></div>"},"extension":[{"url":"http://hl7.org/fhir/us/core/StructureDefinition/us-core-race","extension":[{"url":"ombCategory","valueCoding":{"system":"urn:oid:2.16.840.1.113883.6.238","code":"2106-3","display":"White","userSelected":true}},{"url":"text","valueString":"White"}]},{"url":"http://hl7.org/fhir/us/core/StructureDefinition/us-core-ethnicity","extension":[{"url":"ombCategory","valueCoding":{"system":"urn:oid:2.16.840.1.113883.6.238","code":"2135-2","display":"Hispanic or Latino","userSelected":true}},{"url":"text","valueString":"Hispanic or Latino"}]}],"identifier":[{"type":{"coding":[{"system":"http://terminology.hl7.org/CodeSystem/v2-0203","code":"MR"}]},"system":"https://madie.cms.gov/","value":"ScreAtriRefAsseModNodxCp2"}],"active":true,"name":[{"use":"usual","text":"ScreAtriRefAsseModNodxCp2","family":"OCCURPass4","given":["ScreAtriRefAsseModNodxCp2OCCURPass4"]}],"gender":"male","birthDate":"1956-02-01","address":[{"text":"ScreAtriRefAsseModNodxCp2, Screened Not at risk Assessed Severely Malnourished Diagnosed Care Plan, ID=ScreAtriRefAsseModNodxCp2, DOB: 14 May 1950"}]},"request":{"method":"PUT","url":"Patient/4745fe6f-769b-4e1d-aa55-28a3c65b26cd"}},{"fullUrl":"https://madie.cms.gov/Encounter/7b1b5574-0919-423b-a78d-8fcea1229b3a","resource":{"resourceType":"Encounter","id":"7b1b5574-0919-423b-a78d-8fcea1229b3a","meta":{"profile":["http://hl7.org/fhir/us/qicore/StructureDefinition/qicore-encounter"]},"status":"finished","class":{"system":"http://terminology.hl7.org/CodeSystem/v3-ActCode","code":"IMP","display":"inpatient encounter"},"type":[{"coding":[{"system":"http://snomed.info/sct","code":"183452005"}]}],"subject":{"reference":"Patient/4745fe6f-769b-4e1d-aa55-28a3c65b26cd"},"period":{"start":"2026-02-01T08:00:00.000Z","end":"2026-02-07T08:15:00.000Z"}},"request":{"method":"PUT","url":"Encounter/7b1b5574-0919-423b-a78d-8fcea1229b3a"}},{"fullUrl":"https://madie.cms.gov/Observation/5bd44695-c190-46f8-b4f5-480171ebb830","resource":{"resourceType":"Observation","id":"5bd44695-c190-46f8-b4f5-480171ebb830","meta":{"profile":["http://hl7.org/fhir/us/qicore/StructureDefinition/qicore-observation"]},"status":"final","category":[{"coding":[{"system":"http://terminology.hl7.org/CodeSystem/observation-category","code":"survey","display":"Survey"}]}],"code":{"coding":[{"system":"http://loinc.org","code":"98968-1","display":"Initial Screening NRS_2002","userSelected":true}]},"subject":{"reference":"Patient/4745fe6f-769b-4e1d-aa55-28a3c65b26cd"},"effectiveDateTime":"2026-02-01T09:00:00.000+00:00","valueCodeableConcept":{"coding":[{"system":"http://snomed.info/sct","code":"129689002","display":"At risk for nutritional problem (finding)","userSelected":true}]}},"request":{"method":"PUT","url":"Observation/5bd44695-c190-46f8-b4f5-480171ebb830"}},{"fullUrl":"https://madie.cms.gov/Observation/db6c7772-80ff-467f-be8f-6fe5e16d8c71","resource":{"resourceType":"Observation","id":"db6c7772-80ff-467f-be8f-6fe5e16d8c71","meta":{"profile":["http://hl7.org/fhir/us/qicore/StructureDefinition/qicore-observation"]},"status":"final","category":[{"coding":[{"system":"http://terminology.hl7.org/CodeSystem/observation-category","code":"survey","display":"Survey"}]}],"code":{"coding":[{"system":"http://loinc.org","code":"75303-8","display":"Nutrition assessment narrative","userSelected":true}]},"subject":{"reference":"Patient/4745fe6f-769b-4e1d-aa55-28a3c65b26cd"},"effectiveDateTime":"2026-02-01T10:00:00.000+00:00","valueCodeableConcept":{"coding":[{"system":"http://snomed.info/sct","code":"371597004","display":"Emaciated (finding)","userSelected":true}]}},"request":{"method":"PUT","url":"Observation/db6c7772-80ff-467f-be8f-6fe5e16d8c71"}},{"fullUrl":"https://madie.cms.gov/Procedure/46d6e03b-8c9b-4df8-ad34-33bc68717189","resource":{"resourceType":"Procedure","id":"46d6e03b-8c9b-4df8-ad34-33bc68717189","meta":{"profile":["http://hl7.org/fhir/us/qicore/StructureDefinition/qicore-procedure"]},"extension":[{"url":"http://hl7.org/fhir/us/qicore/StructureDefinition/qicore-recorded","valueDateTime":"2025-02-01T11:30:00.000Z"}],"status":"completed","code":{"coding":[{"system":"http://snomed.info/sct","code":"306354000","display":"Referral to hospital-based dietitian (procedure)"}],"text":"Referral to hospital-based dietitian (procedure)"},"subject":{"reference":"Patient/4745fe6f-769b-4e1d-aa55-28a3c65b26cd"},"encounter":{"reference":"Encounter/ScreAtriRefAsseModNodxCp2DENOMPass4"},"performedPeriod":{"start":"2026-02-01T11:30:00.000Z","end":"2026-02-07T08:15:00.000Z"}},"request":{"method":"PUT","url":"Procedure/46d6e03b-8c9b-4df8-ad34-33bc68717189"}},{"fullUrl":"https://madie.cms.gov/Procedure/7e9133b6-b49c-46fe-9c2c-5bd17c5471d3","resource":{"resourceType":"Procedure","id":"7e9133b6-b49c-46fe-9c2c-5bd17c5471d3","meta":{"profile":["http://hl7.org/fhir/us/qicore/StructureDefinition/qicore-procedure"]},"extension":[{"url":"http://hl7.org/fhir/us/qicore/StructureDefinition/qicore-recorded","valueDateTime":"2025-02-02T11:30:00.000Z"}],"status":"completed","code":{"coding":[{"system":"http://snomed.info/sct","code":"386372009","display":"Nutrition management (regime/therapy)"}],"text":"Nutrition management (regime/therapy)"},"subject":{"reference":"Patient/4745fe6f-769b-4e1d-aa55-28a3c65b26cd"},"encounter":{"reference":"Encounter/ScreAtriRefAsseModNodxCp2OCCURPass4"},"performedPeriod":{"start":"2026-02-01T11:30:00.000Z","end":"2026-02-07T08:15:00.000Z"}},"request":{"method":"PUT","url":"Procedure/7e9133b6-b49c-46fe-9c2c-5bd17c5471d3"}},{"fullUrl":"https://madie.cms.gov/Coverage/8e6c37c3-ca5a-422a-9bd7-9bc89a459054","resource":{"resourceType":"Coverage","id":"8e6c37c3-ca5a-422a-9bd7-9bc89a459054","meta":{"profile":["http://hl7.org/fhir/us/qicore/StructureDefinition/qicore-coverage"]},"status":"active","type":{"coding":[{"system":"https://nahdo.org/sopt","version":"9.2","code":"11","display":"Medicare Managed Care (Includes Medicare Advantage Plans)"}]},"beneficiary":{"reference":"Patient/4745fe6f-769b-4e1d-aa55-28a3c65b26cd"},"period":{"start":"2024-10-01T00:00:00+00:00"},"payor":[{"reference":"Organization/d75c6640-fe6b-49d8-bba4-74f00c76350f"}]},"request":{"method":"PUT","url":"Coverage/8e6c37c3-ca5a-422a-9bd7-9bc89a459054"}},{"fullUrl":"https://madie.cms.gov/Organization/d75c6640-fe6b-49d8-bba4-74f00c76350f","resource":{"resourceType":"Organization","id":"d75c6640-fe6b-49d8-bba4-74f00c76350f","meta":{"profile":["http://hl7.org/fhir/us/qicore/StructureDefinition/qicore-organization"]},"identifier":[{"use":"temp","system":"urn:oid:2.16.840.1.113883.4.4","value":"21-3259825"}],"active":true,"type":[{"coding":[{"system":"http://terminology.hl7.org/CodeSystem/organization-type","code":"pay","display":"Payer"}]}],"name":"Blue Cross Blue Shield of Texas","telecom":[{"system":"phone","value":"(+1) 972-766-6900"}],"address":[{"use":"billing","type":"postal","line":["P.O. Box 660044"],"city":"Dallas","state":"TX","postalCode":"75266-0044","country":"USA"}]},"request":{"method":"PUT","url":"Organization/d75c6640-fe6b-49d8-bba4-74f00c76350f"}},{"fullUrl":"https://madie.cms.gov/MeasureReport/74e8a24d-765c-4547-83b5-6f30dcf6c415","resource":{"resourceType":"MeasureReport","id":"74e8a24d-765c-4547-83b5-6f30dcf6c415","meta":{"profile":["http://hl7.org/fhir/us/cqfmeasures/StructureDefinition/test-case-cqfm"]},"contained":[{"resourceType":"Parameters","id":"1c49fbca-a235-406a-9314-c64cbdda9562-parameters","parameter":[{"name":"subject","valueString":"4745fe6f-769b-4e1d-aa55-28a3c65b26cd"}]}],"extension":[{"url":"http://hl7.org/fhir/us/cqfmeasures/StructureDefinition/cqfm-inputParameters","valueReference":{"reference":"#1c49fbca-a235-406a-9314-c64cbdda9562-parameters"}},{"url":"http://hl7.org/fhir/us/cqfmeasures/StructureDefinition/cqfm-testCaseDescription","valueMarkdown":"Screened, At Risk, Referral, Assessed, Moderate Malnutrition, No DX, Nutrition Care Plan"}],"modifierExtension":[{"url":"http://hl7.org/fhir/us/cqfmeasures/StructureDefinition/cqfm-isTestCase","valueBoolean":true}],"status":"complete","type":"individual","measure":"https://madie.cms.gov/Measure/GlobalMalnutritionCompositeFHIR","period":{"start":"2026-01-01","end":"2026-12-31"},"group":[{"population":[{"code":{"coding":[{"system":"http://terminology.hl7.org/CodeSystem/measure-population","code":"initial-population","display":"Initial Population"}]},"count":1},{"code":{"coding":[{"system":"http://terminology.hl7.org/CodeSystem/measure-population","code":"measure-population","display":"Measure Population"}]},"count":1},{"code":{"coding":[{"system":"http://terminology.hl7.org/CodeSystem/measure-population","code":"measure-population-observation","display":"Measure Population Observation"}]},"count":1}]},{"population":[{"code":{"coding":[{"system":"http://terminology.hl7.org/CodeSystem/measure-population","code":"initial-population","display":"Initial Population"}]},"count":1},{"code":{"coding":[{"system":"http://terminology.hl7.org/CodeSystem/measure-population","code":"measure-population","display":"Measure Population"}]},"count":1},{"code":{"coding":[{"system":"http://terminology.hl7.org/CodeSystem/measure-population","code":"measure-population-observation","display":"Measure Population Observation"}]},"count":1}]},{"population":[{"code":{"coding":[{"system":"http://terminology.hl7.org/CodeSystem/measure-population","code":"initial-population","display":"Initial Population"}]},"count":1},{"code":{"coding":[{"system":"http://terminology.hl7.org/CodeSystem/measure-population","code":"measure-population","display":"Measure Population"}]},"count":1},{"code":{"coding":[{"system":"http://terminology.hl7.org/CodeSystem/measure-population","code":"measure-population-observation","display":"Measure Population Observation"}]},"count":0}]},{"population":[{"code":{"coding":[{"system":"http://terminology.hl7.org/CodeSystem/measure-population","code":"initial-population","display":"Initial Population"}]},"count":1},{"code":{"coding":[{"system":"http://terminology.hl7.org/CodeSystem/measure-population","code":"measure-population","display":"Measure Population"}]},"count":1},{"code":{"coding":[{"system":"http://terminology.hl7.org/CodeSystem/measure-population","code":"measure-population-observation","display":"Measure Population Observation"}]},"count":1}]},{"population":[{"code":{"coding":[{"system":"http://terminology.hl7.org/CodeSystem/measure-population","code":"initial-population","display":"Initial Population"}]},"count":1},{"code":{"coding":[{"system":"http://terminology.hl7.org/CodeSystem/measure-population","code":"measure-population","display":"Measure Population"}]},"count":1},{"code":{"coding":[{"system":"http://terminology.hl7.org/CodeSystem/measure-population","code":"measure-population-observation","display":"Measure Population Observation"}]},"count":3}]},{"population":[{"code":{"coding":[{"system":"http://terminology.hl7.org/CodeSystem/measure-population","code":"initial-population","display":"Initial Population"}]},"count":1},{"code":{"coding":[{"system":"http://terminology.hl7.org/CodeSystem/measure-population","code":"measure-population","display":"Measure Population"}]},"count":1},{"code":{"coding":[{"system":"http://terminology.hl7.org/CodeSystem/measure-population","code":"measure-population-observation","display":"Measure Population Observation"}]},"count":75}]}],"evaluatedResource":[{"reference":"Patient/4745fe6f-769b-4e1d-aa55-28a3c65b26cd"},{"reference":"Encounter/7b1b5574-0919-423b-a78d-8fcea1229b3a"},{"reference":"Observation/5bd44695-c190-46f8-b4f5-480171ebb830"},{"reference":"Observation/db6c7772-80ff-467f-be8f-6fe5e16d8c71"},{"reference":"Procedure/46d6e03b-8c9b-4df8-ad34-33bc68717189"},{"reference":"Procedure/7e9133b6-b49c-46fe-9c2c-5bd17c5471d3"},{"reference":"Coverage/8e6c37c3-ca5a-422a-9bd7-9bc89a459054"},{"reference":"Organization/d75c6640-fe6b-49d8-bba4-74f00c76350f"}]},"request":{"method":"PUT","url":"MeasureReport/74e8a24d-765c-4547-83b5-6f30dcf6c415"}}]}