{"resourceType":"Bundle","id":"tests-6c6be4a1-5d2c-4283-ba07-0a078cfe5115-bundle","type":"transaction","entry":[{"fullUrl":"https://madie.cms.gov/Patient/6c6be4a1-5d2c-4283-ba07-0a078cfe5115","resource":{"resourceType":"Patient","id":"6c6be4a1-5d2c-4283-ba07-0a078cfe5115","meta":{"profile":["http://hl7.org/fhir/us/qicore/StructureDefinition/qicore-patient"]},"text":{"status":"generated","div":"<div xmlns=\"http://www.w3.org/1999/xhtml\"><div class=\"hapiHeaderText\">ScreAtriRefAsseNotmNodxCp2, , <b> </b></div><table class=\"hapiPropertyTable\"><tbody><tr><td>Identifier</td><td>ScreAtriRefAsseNotmNodxCp2</td></tr><tr><td>Date of birth</td><td><span>14 May 1950</span></td></tr></tbody></table></div>"},"extension":[{"url":"http://hl7.org/fhir/us/core/StructureDefinition/us-core-race","extension":[{"url":"ombCategory","valueCoding":{"system":"urn:oid:2.16.840.1.113883.6.238","code":"1002-5","display":"American Indian or Alaska Native","userSelected":true}},{"url":"text","valueString":"American Indian or Alaska Native"}]},{"url":"http://hl7.org/fhir/us/core/StructureDefinition/us-core-ethnicity","extension":[{"url":"ombCategory","valueCoding":{"system":"urn:oid:2.16.840.1.113883.6.238","code":"2186-5","display":"Not Hispanic or Latino","userSelected":true}},{"url":"text","valueString":"Not Hispanic or Latino"}]}],"identifier":[{"type":{"coding":[{"system":"http://terminology.hl7.org/CodeSystem/v2-0203","code":"MR"}]},"system":"https://madie.cms.gov/","value":"ScreAtriRefAsseNotmNodxCp2"}],"active":true,"name":[{"use":"usual","text":"ScreAtriRefAsseNotmNodxCp2","family":"OCCURPass2","given":["ScreAtriRefAsseNotmNodxCp2OCCURPass2"]}],"gender":"female","birthDate":"1956-01-01","address":[{"text":"ScreAtriRefAsseNotmNodxCp2, Screened Not at risk Assessed Severely Malnourished Diagnosed Care Plan, ID=ScreAtriRefAsseNotmNodxCp2, DOB: 14 May 1950"}]},"request":{"method":"PUT","url":"Patient/6c6be4a1-5d2c-4283-ba07-0a078cfe5115"}},{"fullUrl":"https://madie.cms.gov/Encounter/7d8335e7-db02-4e6e-837f-8a711ac3fc26","resource":{"resourceType":"Encounter","id":"7d8335e7-db02-4e6e-837f-8a711ac3fc26","meta":{"profile":["http://hl7.org/fhir/us/qicore/StructureDefinition/qicore-encounter"]},"status":"finished","class":{"system":"http://terminology.hl7.org/CodeSystem/v3-ActCode","code":"IMP","display":"inpatient encounter"},"type":[{"coding":[{"system":"http://snomed.info/sct","code":"183452005"}]}],"subject":{"reference":"Patient/6c6be4a1-5d2c-4283-ba07-0a078cfe5115"},"period":{"start":"2026-02-01T08:00:00.000Z","end":"2026-02-07T08:15:00.000Z"}},"request":{"method":"PUT","url":"Encounter/7d8335e7-db02-4e6e-837f-8a711ac3fc26"}},{"fullUrl":"https://madie.cms.gov/Observation/8af755a3-4bcc-4b01-bc8f-ce06127724a6","resource":{"resourceType":"Observation","id":"8af755a3-4bcc-4b01-bc8f-ce06127724a6","meta":{"profile":["http://hl7.org/fhir/us/qicore/StructureDefinition/qicore-observation"]},"status":"final","category":[{"coding":[{"system":"http://terminology.hl7.org/CodeSystem/observation-category","code":"survey","display":"Survey"}]}],"code":{"coding":[{"system":"http://loinc.org","code":"98968-1","display":"Initial screening NRS_2002","userSelected":true}]},"subject":{"reference":"Patient/6c6be4a1-5d2c-4283-ba07-0a078cfe5115"},"effectiveDateTime":"2026-02-01T09:00:00.000+00:00","valueCodeableConcept":{"coding":[{"system":"http://snomed.info/sct","code":"704361005","display":"At risk for deficient food intake (finding)","userSelected":true}]}},"request":{"method":"PUT","url":"Observation/8af755a3-4bcc-4b01-bc8f-ce06127724a6"}},{"fullUrl":"https://madie.cms.gov/Observation/c55fae20-ce88-4e0a-b864-4b679c4d8b5a","resource":{"resourceType":"Observation","id":"c55fae20-ce88-4e0a-b864-4b679c4d8b5a","meta":{"profile":["http://hl7.org/fhir/us/qicore/StructureDefinition/qicore-observation"]},"status":"final","category":[{"coding":[{"system":"http://terminology.hl7.org/CodeSystem/observation-category","code":"survey","display":"Survey"}]}],"code":{"coding":[{"system":"http://loinc.org","code":"75303-8","display":"Nutrition assessment narrative","userSelected":true}]},"subject":{"reference":"Patient/6c6be4a1-5d2c-4283-ba07-0a078cfe5115"},"effectiveDateTime":"2026-02-01T10:00:00.000+00:00","valueCodeableConcept":{"coding":[{"system":"http://snomed.info/sct","code":"248324001","display":"Well nourished (finding)","userSelected":true}]}},"request":{"method":"PUT","url":"Observation/c55fae20-ce88-4e0a-b864-4b679c4d8b5a"}},{"fullUrl":"https://madie.cms.gov/Procedure/34c613ae-7767-4dcf-b57f-e63cf14fa379","resource":{"resourceType":"Procedure","id":"34c613ae-7767-4dcf-b57f-e63cf14fa379","meta":{"profile":["http://hl7.org/fhir/us/qicore/StructureDefinition/qicore-procedure"]},"extension":[{"url":"http://hl7.org/fhir/us/qicore/StructureDefinition/qicore-recorded","valueDateTime":"2026-02-01T11:30:00.000Z"}],"status":"completed","code":{"coding":[{"system":"http://snomed.info/sct","code":"306354000","display":"Referral to hospital-based dietitian (procedure)"}],"text":"Referral to hospital-based dietitian (procedure)"},"subject":{"reference":"Patient/6c6be4a1-5d2c-4283-ba07-0a078cfe5115"},"encounter":{"reference":"Encounter/ScreAtriRefAsseNotmNodxCp2DENOMPass2"},"performedPeriod":{"start":"2026-02-01T11:30:00.000Z","end":"2026-02-07T08:15:00.000Z"}},"request":{"method":"PUT","url":"Procedure/34c613ae-7767-4dcf-b57f-e63cf14fa379"}},{"fullUrl":"https://madie.cms.gov/Procedure/e76845a1-2699-470e-8153-e6d20e40ddd3","resource":{"resourceType":"Procedure","id":"e76845a1-2699-470e-8153-e6d20e40ddd3","meta":{"profile":["http://hl7.org/fhir/us/qicore/StructureDefinition/qicore-procedure"]},"extension":[{"url":"http://hl7.org/fhir/us/qicore/StructureDefinition/qicore-recorded","valueDateTime":"2026-02-02T11:30:00.000Z"}],"status":"completed","code":{"coding":[{"system":"http://snomed.info/sct","code":"413315001","display":"Nutrition/feeding management (regime/therapy)"}],"text":"Nutrition/feeding management (regime/therapy)"},"subject":{"reference":"Patient/6c6be4a1-5d2c-4283-ba07-0a078cfe5115"},"encounter":{"reference":"Encounter/ScreAtriRefAsseNotmNodxCp2OCCURPass2"},"performedPeriod":{"start":"2026-02-01T11:30:00.000Z","end":"2026-02-07T08:15:00.000Z"}},"request":{"method":"PUT","url":"Procedure/e76845a1-2699-470e-8153-e6d20e40ddd3"}},{"fullUrl":"https://madie.cms.gov/Coverage/77fa0d23-e457-4dde-b1b0-f385d4ace8d5","resource":{"resourceType":"Coverage","id":"77fa0d23-e457-4dde-b1b0-f385d4ace8d5","meta":{"profile":["http://hl7.org/fhir/us/qicore/StructureDefinition/qicore-coverage"]},"status":"active","type":{"coding":[{"system":"https://nahdo.org/sopt","version":"9.2","code":"11","display":"Medicare Managed Care (Includes Medicare Advantage Plans)"}]},"beneficiary":{"reference":"Patient/6c6be4a1-5d2c-4283-ba07-0a078cfe5115"},"period":{"start":"2026-10-01T00:00:00+00:00"},"payor":[{"reference":"Organization/5743ebcc-7bcb-4320-b2cd-c5bfe693d267"}]},"request":{"method":"PUT","url":"Coverage/77fa0d23-e457-4dde-b1b0-f385d4ace8d5"}},{"fullUrl":"https://madie.cms.gov/Organization/5743ebcc-7bcb-4320-b2cd-c5bfe693d267","resource":{"resourceType":"Organization","id":"5743ebcc-7bcb-4320-b2cd-c5bfe693d267","meta":{"profile":["http://hl7.org/fhir/us/qicore/StructureDefinition/qicore-organization"]},"identifier":[{"use":"temp","system":"urn:oid:2.16.840.1.113883.4.4","value":"21-3259825"}],"active":true,"type":[{"coding":[{"system":"http://terminology.hl7.org/CodeSystem/organization-type","code":"pay","display":"Payer"}]}],"name":"Blue Cross Blue Shield of Texas","telecom":[{"system":"phone","value":"(+1) 972-766-6900"}],"address":[{"use":"billing","type":"postal","line":["P.O. Box 660044"],"city":"Dallas","state":"TX","postalCode":"75266-0044","country":"USA"}]},"request":{"method":"PUT","url":"Organization/5743ebcc-7bcb-4320-b2cd-c5bfe693d267"}},{"fullUrl":"https://madie.cms.gov/MeasureReport/5a128a95-f3aa-4634-94b9-214477b41707","resource":{"resourceType":"MeasureReport","id":"5a128a95-f3aa-4634-94b9-214477b41707","meta":{"profile":["http://hl7.org/fhir/us/cqfmeasures/StructureDefinition/test-case-cqfm"]},"contained":[{"resourceType":"Parameters","id":"da8ef7fb-b5f9-4217-9807-6f6e2017174f-parameters","parameter":[{"name":"subject","valueString":"6c6be4a1-5d2c-4283-ba07-0a078cfe5115"}]}],"extension":[{"url":"http://hl7.org/fhir/us/cqfmeasures/StructureDefinition/cqfm-inputParameters","valueReference":{"reference":"#da8ef7fb-b5f9-4217-9807-6f6e2017174f-parameters"}},{"url":"http://hl7.org/fhir/us/cqfmeasures/StructureDefinition/cqfm-testCaseDescription","valueMarkdown":"Screened, At Risk, Referral, Assessed, Not/Mild Malnutrition, No Diagnosis, Nutrition Care Plan"}],"modifierExtension":[{"url":"http://hl7.org/fhir/us/cqfmeasures/StructureDefinition/cqfm-isTestCase","valueBoolean":true}],"status":"complete","type":"individual","measure":"https://madie.cms.gov/Measure/GlobalMalnutritionCompositeFHIR","period":{"start":"2026-01-01","end":"2026-12-31"},"group":[{"population":[{"code":{"coding":[{"system":"http://terminology.hl7.org/CodeSystem/measure-population","code":"initial-population","display":"Initial Population"}]},"count":1},{"code":{"coding":[{"system":"http://terminology.hl7.org/CodeSystem/measure-population","code":"measure-population","display":"Measure Population"}]},"count":1},{"code":{"coding":[{"system":"http://terminology.hl7.org/CodeSystem/measure-population","code":"measure-population-observation","display":"Measure Population Observation"}]},"count":1}]},{"population":[{"code":{"coding":[{"system":"http://terminology.hl7.org/CodeSystem/measure-population","code":"initial-population","display":"Initial Population"}]},"count":1},{"code":{"coding":[{"system":"http://terminology.hl7.org/CodeSystem/measure-population","code":"measure-population","display":"Measure Population"}]},"count":1},{"code":{"coding":[{"system":"http://terminology.hl7.org/CodeSystem/measure-population","code":"measure-population-observation","display":"Measure Population Observation"}]},"count":1}]},{"population":[{"code":{"coding":[{"system":"http://terminology.hl7.org/CodeSystem/measure-population","code":"initial-population","display":"Initial Population"}]},"count":1},{"code":{"coding":[{"system":"http://terminology.hl7.org/CodeSystem/measure-population","code":"measure-population","display":"Measure Population"}]},"count":1},{"code":{"coding":[{"system":"http://terminology.hl7.org/CodeSystem/measure-population","code":"measure-population-observation","display":"Measure Population Observation"}]},"count":0}]},{"population":[{"code":{"coding":[{"system":"http://terminology.hl7.org/CodeSystem/measure-population","code":"initial-population","display":"Initial Population"}]},"count":1},{"code":{"coding":[{"system":"http://terminology.hl7.org/CodeSystem/measure-population","code":"measure-population","display":"Measure Population"}]},"count":1},{"code":{"coding":[{"system":"http://terminology.hl7.org/CodeSystem/measure-population","code":"measure-population-observation","display":"Measure Population Observation"}]},"count":0}]},{"population":[{"code":{"coding":[{"system":"http://terminology.hl7.org/CodeSystem/measure-population","code":"initial-population","display":"Initial Population"}]},"count":1},{"code":{"coding":[{"system":"http://terminology.hl7.org/CodeSystem/measure-population","code":"measure-population","display":"Measure Population"}]},"count":1},{"code":{"coding":[{"system":"http://terminology.hl7.org/CodeSystem/measure-population","code":"measure-population-observation","display":"Measure Population Observation"}]},"count":2}]},{"population":[{"code":{"coding":[{"system":"http://terminology.hl7.org/CodeSystem/measure-population","code":"initial-population","display":"Initial Population"}]},"count":1},{"code":{"coding":[{"system":"http://terminology.hl7.org/CodeSystem/measure-population","code":"measure-population","display":"Measure Population"}]},"count":1},{"code":{"coding":[{"system":"http://terminology.hl7.org/CodeSystem/measure-population","code":"measure-population-observation","display":"Measure Population Observation"}]},"count":100}]}],"evaluatedResource":[{"reference":"Patient/6c6be4a1-5d2c-4283-ba07-0a078cfe5115"},{"reference":"Encounter/7d8335e7-db02-4e6e-837f-8a711ac3fc26"},{"reference":"Observation/8af755a3-4bcc-4b01-bc8f-ce06127724a6"},{"reference":"Observation/c55fae20-ce88-4e0a-b864-4b679c4d8b5a"},{"reference":"Procedure/34c613ae-7767-4dcf-b57f-e63cf14fa379"},{"reference":"Procedure/e76845a1-2699-470e-8153-e6d20e40ddd3"},{"reference":"Coverage/77fa0d23-e457-4dde-b1b0-f385d4ace8d5"},{"reference":"Organization/5743ebcc-7bcb-4320-b2cd-c5bfe693d267"}]},"request":{"method":"PUT","url":"MeasureReport/5a128a95-f3aa-4634-94b9-214477b41707"}}]}