{"resourceType":"Bundle","id":"tests-bd19f603-4d54-4014-92c8-55dbe78f7c60-bundle","type":"transaction","entry":[{"fullUrl":"https://madie.cms.gov/Patient/bd19f603-4d54-4014-92c8-55dbe78f7c60","resource":{"resourceType":"Patient","id":"bd19f603-4d54-4014-92c8-55dbe78f7c60","meta":{"profile":["http://hl7.org/fhir/us/qicore/StructureDefinition/qicore-patient"]},"text":{"status":"generated","div":"<div xmlns=\"http://www.w3.org/1999/xhtml\"><div class=\"hapiHeaderText\">ScreNotatriNoref2AsseNotmModDxCp, , <b> </b></div><table class=\"hapiPropertyTable\"><tbody><tr><td>Identifier</td><td>ScreNotatriNoref2AsseNotmModDxCp</td></tr><tr><td>Date of birth</td><td><span>14 May 1950</span></td></tr></tbody></table></div>"},"extension":[{"url":"http://hl7.org/fhir/us/core/StructureDefinition/us-core-race","extension":[{"url":"ombCategory","valueCoding":{"system":"urn:oid:2.16.840.1.113883.6.238","code":"2106-3","display":"White","userSelected":true}},{"url":"text","valueString":"White"}]},{"url":"http://hl7.org/fhir/us/core/StructureDefinition/us-core-ethnicity","extension":[{"url":"ombCategory","valueCoding":{"system":"urn:oid:2.16.840.1.113883.6.238","code":"2186-5","display":"Not Hispanic or Latino","userSelected":true}},{"url":"text","valueString":"Not Hispanic or Latino"}]}],"identifier":[{"type":{"coding":[{"system":"http://terminology.hl7.org/CodeSystem/v2-0203","code":"MR"}]},"system":"https://madie.cms.gov/","value":"ScreNotatriNoref2AsseNotmModDxCp"}],"active":true,"name":[{"use":"usual","text":"ScreNotatriNoref2AsseNotmModDxCp","family":"OCCURPass1","given":["ScreNotatriNoref2AsseNotmModDxCpOCCURPass1"]}],"gender":"female","birthDate":"1954-01-01","address":[{"text":"ScreNotatriNoref2AsseNotmModDxCp, Screened Not at risk Assessed Severely Malnourished Diagnosed Care Plan, ID=ScreNotatriNoref2AsseNotmModDxCp, DOB: 14 May 1950"}]},"request":{"method":"PUT","url":"Patient/bd19f603-4d54-4014-92c8-55dbe78f7c60"}},{"fullUrl":"https://madie.cms.gov/Encounter/4acf8e85-2e07-4a01-8608-be005e44a51d","resource":{"resourceType":"Encounter","id":"4acf8e85-2e07-4a01-8608-be005e44a51d","meta":{"profile":["http://hl7.org/fhir/us/qicore/StructureDefinition/qicore-encounter"]},"status":"finished","class":{"system":"http://terminology.hl7.org/CodeSystem/v3-ActCode","code":"IMP","display":"inpatient encounter"},"type":[{"coding":[{"system":"http://snomed.info/sct","code":"183452005"}]}],"subject":{"reference":"Patient/bd19f603-4d54-4014-92c8-55dbe78f7c60"},"period":{"start":"2026-02-01T08:00:00.000Z","end":"2026-02-07T08:15:00.000Z"}},"request":{"method":"PUT","url":"Encounter/4acf8e85-2e07-4a01-8608-be005e44a51d"}},{"fullUrl":"https://madie.cms.gov/Condition/18fa453f-151e-4162-80b2-bd20e527fb33","resource":{"resourceType":"Condition","id":"18fa453f-151e-4162-80b2-bd20e527fb33","meta":{"profile":["http://hl7.org/fhir/us/qicore/StructureDefinition/qicore-condition"]},"clinicalStatus":{"coding":[{"system":"http://terminology.hl7.org/CodeSystem/condition-clinical","code":"active","display":"Active","userSelected":true}]},"verificationStatus":{"coding":[{"system":"http://terminology.hl7.org/CodeSystem/condition-ver-status","code":"confirmed","display":"Confirmed","userSelected":true}]},"category":[{"coding":[{"system":"http://terminology.hl7.org/CodeSystem/condition-category","code":"encounter-diagnosis","display":"Encounter Diagnosis","userSelected":true}]}],"code":{"coding":[{"system":"http://snomed.info/sct","code":"722960005","display":"Anorexia nervosa co-occurrent with significantly low body weight (disorder)","userSelected":true}]},"subject":{"reference":"Patient/bd19f603-4d54-4014-92c8-55dbe78f7c60"},"onsetPeriod":{"start":"2026-02-01T08:00:00.000+00:00"},"recordedDate":"2026-02-01T11:00:00.000+00:00"},"request":{"method":"PUT","url":"Condition/18fa453f-151e-4162-80b2-bd20e527fb33"}},{"fullUrl":"https://madie.cms.gov/Observation/322d8410-d1ce-4ab2-a6b1-86f40a7984a3","resource":{"resourceType":"Observation","id":"322d8410-d1ce-4ab2-a6b1-86f40a7984a3","meta":{"profile":["http://hl7.org/fhir/us/qicore/StructureDefinition/qicore-observation"]},"status":"final","category":[{"coding":[{"system":"http://terminology.hl7.org/CodeSystem/observation-category","code":"survey","display":"Survey"}]}],"code":{"coding":[{"system":"http://loinc.org","code":"98968-1","display":"Initial Screening NRS_2002","userSelected":true}]},"subject":{"reference":"Patient/bd19f603-4d54-4014-92c8-55dbe78f7c60"},"effectiveDateTime":"2026-02-01T09:00:00.000+00:00","valueCodeableConcept":{"coding":[{"system":"http://loinc.org","code":"LA27538-0","display":"At risk for malnutrition","userSelected":true}]}},"request":{"method":"PUT","url":"Observation/322d8410-d1ce-4ab2-a6b1-86f40a7984a3"}},{"fullUrl":"https://madie.cms.gov/Observation/30ab1271-ca09-4fac-99a1-914b8aae918f","resource":{"resourceType":"Observation","id":"30ab1271-ca09-4fac-99a1-914b8aae918f","meta":{"profile":["http://hl7.org/fhir/us/qicore/StructureDefinition/qicore-observation"]},"status":"final","category":[{"coding":[{"system":"http://terminology.hl7.org/CodeSystem/observation-category","code":"survey","display":"Survey"}]}],"code":{"coding":[{"system":"http://loinc.org","code":"98968-1","display":"Initial Screening NRS_2002","userSelected":true}]},"subject":{"reference":"Patient/bd19f603-4d54-4014-92c8-55dbe78f7c60"},"effectiveDateTime":"2026-01-01T09:00:00.000+00:00","valueCodeableConcept":{"coding":[{"system":"http://loinc.org","code":"LA33699-2","display":"Not At risk for malnutrition","userSelected":true}]}},"request":{"method":"PUT","url":"Observation/30ab1271-ca09-4fac-99a1-914b8aae918f"}},{"fullUrl":"https://madie.cms.gov/Observation/dfbeaf59-b495-4414-bbd8-999715f37123","resource":{"resourceType":"Observation","id":"dfbeaf59-b495-4414-bbd8-999715f37123","meta":{"profile":["http://hl7.org/fhir/us/qicore/StructureDefinition/qicore-observation"]},"status":"final","category":[{"coding":[{"system":"http://terminology.hl7.org/CodeSystem/observation-category","code":"survey","display":"Survey"}]}],"code":{"coding":[{"system":"http://loinc.org","code":"75303-8","display":"Nutrition assessment narrative","userSelected":true}]},"subject":{"reference":"Patient/bd19f603-4d54-4014-92c8-55dbe78f7c60"},"effectiveDateTime":"2026-02-01T10:00:00.000+00:00","valueCodeableConcept":{"coding":[{"system":"http://snomed.info/sct","code":"56882008","display":"Anorexia nervosa (disorder)","userSelected":true}]}},"request":{"method":"PUT","url":"Observation/dfbeaf59-b495-4414-bbd8-999715f37123"}},{"fullUrl":"https://madie.cms.gov/Observation/4fac517f-cbf2-42f3-8ee1-7bb285f6e48f","resource":{"resourceType":"Observation","id":"4fac517f-cbf2-42f3-8ee1-7bb285f6e48f","meta":{"profile":["http://hl7.org/fhir/us/qicore/StructureDefinition/qicore-observation"]},"status":"final","category":[{"coding":[{"system":"http://terminology.hl7.org/CodeSystem/observation-category","code":"survey","display":"Survey"}]}],"code":{"coding":[{"system":"http://loinc.org","code":"75304-6","display":"Nutrition status observation panel","userSelected":true}]},"subject":{"reference":"Patient/bd19f603-4d54-4014-92c8-55dbe78f7c60"},"effectiveDateTime":"2026-02-01T10:00:00.000+00:00","valueCodeableConcept":{"coding":[{"system":"http://snomed.info/sct","code":"248324001","display":"Well nourished (finding)","userSelected":true}]}},"request":{"method":"PUT","url":"Observation/4fac517f-cbf2-42f3-8ee1-7bb285f6e48f"}},{"fullUrl":"https://madie.cms.gov/Procedure/6176b7d0-a9cd-49c0-b854-7a4d7be3022a","resource":{"resourceType":"Procedure","id":"6176b7d0-a9cd-49c0-b854-7a4d7be3022a","meta":{"profile":["http://hl7.org/fhir/us/qicore/StructureDefinition/qicore-procedure"]},"extension":[{"url":"http://hl7.org/fhir/us/qicore/StructureDefinition/qicore-recorded","valueDateTime":"2026-02-02T11:30:00.000Z"}],"status":"completed","code":{"coding":[{"system":"http://snomed.info/sct","code":"410172000","display":"Nutrition care management (procedure)"}],"text":"Nutrition care management (procedure)"},"subject":{"reference":"Patient/bd19f603-4d54-4014-92c8-55dbe78f7c60"},"encounter":{"reference":"Encounter/ScreNotatriNoref2AsseNotmModDxCpOCCURPass1"},"performedPeriod":{"start":"2026-02-01T11:30:00.000Z","end":"2026-02-07T08:15:00.000Z"}},"request":{"method":"PUT","url":"Procedure/6176b7d0-a9cd-49c0-b854-7a4d7be3022a"}},{"fullUrl":"https://madie.cms.gov/Coverage/25d6e828-3fed-4323-8e6f-2cdc201a7c92","resource":{"resourceType":"Coverage","id":"25d6e828-3fed-4323-8e6f-2cdc201a7c92","meta":{"profile":["http://hl7.org/fhir/us/qicore/StructureDefinition/qicore-coverage"]},"status":"active","type":{"coding":[{"system":"https://nahdo.org/sopt","version":"9.2","code":"11","display":"Medicare Managed Care (Includes Medicare Advantage Plans)"}]},"beneficiary":{"reference":"Patient/bd19f603-4d54-4014-92c8-55dbe78f7c60"},"period":{"start":"2026-10-01T00:00:00+00:00"},"payor":[{"reference":"Organization/7c7a56ff-b2db-4276-972a-c3fc9d2a118d"}]},"request":{"method":"PUT","url":"Coverage/25d6e828-3fed-4323-8e6f-2cdc201a7c92"}},{"fullUrl":"https://madie.cms.gov/Organization/7c7a56ff-b2db-4276-972a-c3fc9d2a118d","resource":{"resourceType":"Organization","id":"7c7a56ff-b2db-4276-972a-c3fc9d2a118d","meta":{"profile":["http://hl7.org/fhir/us/qicore/StructureDefinition/qicore-organization"]},"identifier":[{"use":"temp","system":"urn:oid:2.16.840.1.113883.4.4","value":"21-3259825"}],"active":true,"type":[{"coding":[{"system":"http://terminology.hl7.org/CodeSystem/organization-type","code":"pay","display":"Payer"}]}],"name":"Blue Cross Blue Shield of Texas","telecom":[{"system":"phone","value":"(+1) 972-766-6900"}],"address":[{"use":"billing","type":"postal","line":["P.O. Box 660044"],"city":"Dallas","state":"TX","postalCode":"75266-0044","country":"USA"}]},"request":{"method":"PUT","url":"Organization/7c7a56ff-b2db-4276-972a-c3fc9d2a118d"}},{"fullUrl":"https://madie.cms.gov/MeasureReport/835261fb-3a31-40ae-bbdc-a4926e50b897","resource":{"resourceType":"MeasureReport","id":"835261fb-3a31-40ae-bbdc-a4926e50b897","meta":{"profile":["http://hl7.org/fhir/us/cqfmeasures/StructureDefinition/test-case-cqfm"]},"contained":[{"resourceType":"Parameters","id":"3472a166-83f9-489e-a631-84631017ca12-parameters","parameter":[{"name":"subject","valueString":"bd19f603-4d54-4014-92c8-55dbe78f7c60"}]}],"extension":[{"url":"http://hl7.org/fhir/us/cqfmeasures/StructureDefinition/cqfm-inputParameters","valueReference":{"reference":"#3472a166-83f9-489e-a631-84631017ca12-parameters"}},{"url":"http://hl7.org/fhir/us/cqfmeasures/StructureDefinition/cqfm-testCaseDescription","valueMarkdown":"Screened, At Risk, No Referral, Assessment, Not/Mildly Malnutrition, Severe Malnutrition, Diagnosis, Care Plan"}],"modifierExtension":[{"url":"http://hl7.org/fhir/us/cqfmeasures/StructureDefinition/cqfm-isTestCase","valueBoolean":true}],"status":"complete","type":"individual","measure":"https://madie.cms.gov/Measure/GlobalMalnutritionCompositeFHIR","period":{"start":"2026-01-01","end":"2026-12-31"},"group":[{"population":[{"code":{"coding":[{"system":"http://terminology.hl7.org/CodeSystem/measure-population","code":"initial-population","display":"Initial Population"}]},"count":1},{"code":{"coding":[{"system":"http://terminology.hl7.org/CodeSystem/measure-population","code":"measure-population","display":"Measure Population"}]},"count":1},{"code":{"coding":[{"system":"http://terminology.hl7.org/CodeSystem/measure-population","code":"measure-population-observation","display":"Measure Population Observation"}]},"count":1}]},{"population":[{"code":{"coding":[{"system":"http://terminology.hl7.org/CodeSystem/measure-population","code":"initial-population","display":"Initial Population"}]},"count":1},{"code":{"coding":[{"system":"http://terminology.hl7.org/CodeSystem/measure-population","code":"measure-population","display":"Measure Population"}]},"count":1},{"code":{"coding":[{"system":"http://terminology.hl7.org/CodeSystem/measure-population","code":"measure-population-observation","display":"Measure Population Observation"}]},"count":1}]},{"population":[{"code":{"coding":[{"system":"http://terminology.hl7.org/CodeSystem/measure-population","code":"initial-population","display":"Initial Population"}]},"count":1},{"code":{"coding":[{"system":"http://terminology.hl7.org/CodeSystem/measure-population","code":"measure-population","display":"Measure Population"}]},"count":1},{"code":{"coding":[{"system":"http://terminology.hl7.org/CodeSystem/measure-population","code":"measure-population-observation","display":"Measure Population Observation"}]},"count":0}]},{"population":[{"code":{"coding":[{"system":"http://terminology.hl7.org/CodeSystem/measure-population","code":"initial-population","display":"Initial Population"}]},"count":1},{"code":{"coding":[{"system":"http://terminology.hl7.org/CodeSystem/measure-population","code":"measure-population","display":"Measure Population"}]},"count":1},{"code":{"coding":[{"system":"http://terminology.hl7.org/CodeSystem/measure-population","code":"measure-population-observation","display":"Measure Population Observation"}]},"count":0}]},{"population":[{"code":{"coding":[{"system":"http://terminology.hl7.org/CodeSystem/measure-population","code":"initial-population","display":"Initial Population"}]},"count":1},{"code":{"coding":[{"system":"http://terminology.hl7.org/CodeSystem/measure-population","code":"measure-population","display":"Measure Population"}]},"count":1},{"code":{"coding":[{"system":"http://terminology.hl7.org/CodeSystem/measure-population","code":"measure-population-observation","display":"Measure Population Observation"}]},"count":2}]},{"population":[{"code":{"coding":[{"system":"http://terminology.hl7.org/CodeSystem/measure-population","code":"initial-population","display":"Initial Population"}]},"count":1},{"code":{"coding":[{"system":"http://terminology.hl7.org/CodeSystem/measure-population","code":"measure-population","display":"Measure Population"}]},"count":1},{"code":{"coding":[{"system":"http://terminology.hl7.org/CodeSystem/measure-population","code":"measure-population-observation","display":"Measure Population Observation"}]},"count":100}]}],"evaluatedResource":[{"reference":"Patient/bd19f603-4d54-4014-92c8-55dbe78f7c60"},{"reference":"Encounter/4acf8e85-2e07-4a01-8608-be005e44a51d"},{"reference":"Condition/18fa453f-151e-4162-80b2-bd20e527fb33"},{"reference":"Observation/322d8410-d1ce-4ab2-a6b1-86f40a7984a3"},{"reference":"Observation/30ab1271-ca09-4fac-99a1-914b8aae918f"},{"reference":"Observation/dfbeaf59-b495-4414-bbd8-999715f37123"},{"reference":"Observation/4fac517f-cbf2-42f3-8ee1-7bb285f6e48f"},{"reference":"Procedure/6176b7d0-a9cd-49c0-b854-7a4d7be3022a"},{"reference":"Coverage/25d6e828-3fed-4323-8e6f-2cdc201a7c92"},{"reference":"Organization/7c7a56ff-b2db-4276-972a-c3fc9d2a118d"}]},"request":{"method":"PUT","url":"MeasureReport/835261fb-3a31-40ae-bbdc-a4926e50b897"}}]}