{
  "resourceType": "Bundle",
  "id": "IPPass-1yrWithOralEvalEncJan1OfMP",
  "type": "transaction",
  "entry": [
    {
      "fullUrl": "https://madie.cms.gov/Patient/821582ef-c786-41f2-aab1-068b6f713831",
      "resource": {
        "resourceType": "Patient",
        "id": "821582ef-c786-41f2-aab1-068b6f713831",
        "meta": {
          "profile": [
            "http://hl7.org/fhir/us/qicore/StructureDefinition/qicore-patient"
          ]
        },
        "extension": [
          {
            "url": "http://hl7.org/fhir/us/core/StructureDefinition/us-core-race",
            "extension": [
              {
                "url": "ombCategory",
                "valueCoding": {
                  "system": "urn:oid:2.16.840.1.113883.6.238",
                  "code": "2028-9",
                  "display": "Asian"
                }
              },
              {
                "url": "text",
                "valueString": "Asian"
              }
            ]
          },
          {
            "url": "http://hl7.org/fhir/us/core/StructureDefinition/us-core-ethnicity",
            "extension": [
              {
                "url": "ombCategory",
                "valueCoding": {
                  "system": "urn:oid:2.16.840.1.113883.6.238",
                  "code": "2135-2",
                  "display": "Hispanic or Latino"
                }
              },
              {
                "url": "text",
                "valueString": "Hispanic or Latino"
              }
            ]
          }
        ],
        "identifier": [
          {
            "system": "http://hospital.smarthealthit.org",
            "value": "999999995"
          }
        ],
        "name": [
          {
            "family": "Bertha",
            "given": [
              "Betty"
            ]
          }
        ],
        "gender": "female",
        "birthDate": "2024-01-01"
      },
      "request": {
        "method": "PUT",
        "url": "Patient/821582ef-c786-41f2-aab1-068b6f713831"
      }
    },
    {
      "fullUrl": "https://madie.cms.gov/Encounter/63673b53-d185-4263-9d8b-80923c5d82e0",
      "resource": {
        "resourceType": "Encounter",
        "id": "63673b53-d185-4263-9d8b-80923c5d82e0",
        "meta": {
          "profile": [
            "http://hl7.org/fhir/us/qicore/StructureDefinition/qicore-encounter"
          ]
        },
        "status": "finished",
        "class": {
          "system": "http://terminology.hl7.org/CodeSystem/v3-ActCode",
          "code": "AMB",
          "display": "ambulatory"
        },
        "type": [
          {
            "coding": [
              {
                "system": "http://www.ada.org/cdt",
                "code": "D0120",
                "display": "periodic oral evaluation - established patient"
              }
            ]
          }
        ],
        "subject": {
          "reference": "Patient/821582ef-c786-41f2-aab1-068b6f713831"
        },
        "period": {
          "start": "2025-01-01T00:00:00.000Z",
          "end": "2025-01-01T01:15:00.000Z"
        }
      },
      "request": {
        "method": "PUT",
        "url": "Encounter/63673b53-d185-4263-9d8b-80923c5d82e0"
      }
    },
    {
      "fullUrl": "https://madie.cms.gov/MeasureReport/d69a49a7-bfb6-4caa-8882-c960333b3b12",
      "resource": {
        "resourceType": "MeasureReport",
        "id": "d69a49a7-bfb6-4caa-8882-c960333b3b12",
        "meta": {
          "profile": [
            "http://hl7.org/fhir/us/cqfmeasures/StructureDefinition/test-case-cqfm"
          ]
        },
        "contained": [
          {
            "resourceType": "Parameters",
            "id": "0df6252f-e03a-44b3-b07c-c98be471d8f0-parameters",
            "parameter": [
              {
                "name": "subject",
                "valueString": "821582ef-c786-41f2-aab1-068b6f713831"
              }
            ]
          }
        ],
        "extension": [
          {
            "url": "http://hl7.org/fhir/us/cqfmeasures/StructureDefinition/cqfm-inputParameters",
            "valueReference": {
              "reference": "#0df6252f-e03a-44b3-b07c-c98be471d8f0-parameters"
            }
          },
          {
            "url": "http://hl7.org/fhir/us/cqfmeasures/StructureDefinition/cqfm-testCaseDescription",
            "valueMarkdown": "Patient 1yo w/ an Oral Evaluation Encounter 1/1 of the Measurement Period."
          }
        ],
        "modifierExtension": [
          {
            "url": "http://hl7.org/fhir/us/cqfmeasures/StructureDefinition/cqfm-isTestCase",
            "valueBoolean": true
          }
        ],
        "status": "complete",
        "type": "individual",
        "measure": "https://madie.cms.gov/Measure/PrimaryCariesPreventionasOfferedbyDentistsFHIR",
        "period": {
          "start": "2025-01-01",
          "end": "2025-12-31"
        },
        "group": [
          {
            "population": [
              {
                "code": {
                  "coding": [
                    {
                      "system": "http://terminology.hl7.org/CodeSystem/measure-population",
                      "code": "initial-population",
                      "display": "Initial Population"
                    }
                  ]
                },
                "count": 1
              },
              {
                "code": {
                  "coding": [
                    {
                      "system": "http://terminology.hl7.org/CodeSystem/measure-population",
                      "code": "denominator",
                      "display": "Denominator"
                    }
                  ]
                },
                "count": 1
              },
              {
                "code": {
                  "coding": [
                    {
                      "system": "http://terminology.hl7.org/CodeSystem/measure-population",
                      "code": "denominator-exclusion",
                      "display": "Denominator Exclusion"
                    }
                  ]
                },
                "count": 0
              },
              {
                "code": {
                  "coding": [
                    {
                      "system": "http://terminology.hl7.org/CodeSystem/measure-population",
                      "code": "numerator",
                      "display": "Numerator"
                    }
                  ]
                },
                "count": 0
              }
            ]
          }
        ],
        "evaluatedResource": [
          {
            "reference": "Patient/821582ef-c786-41f2-aab1-068b6f713831"
          },
          {
            "reference": "Encounter/63673b53-d185-4263-9d8b-80923c5d82e0"
          }
        ]
      },
      "request": {
        "method": "PUT",
        "url": "MeasureReport/d69a49a7-bfb6-4caa-8882-c960333b3b12"
      }
    }
  ]
}