{
  "resourceType": "Bundle",
  "id": "6356cc6154e383debade759d",
  "type": "transaction",
  "entry": [
    {
      "fullUrl": "https://madie.cms.gov/Patient/bed0d351-9de6-480b-b3d0-fb44d6fa8e33",
      "resource": {
        "resourceType": "Patient",
        "id": "bed0d351-9de6-480b-b3d0-fb44d6fa8e33",
        "meta": {
          "profile": [
            "http://hl7.org/fhir/us/qicore/StructureDefinition/qicore-patient"
          ]
        },
        "text": {
          "status": "generated",
          "div": "<div xmlns=\"http://www.w3.org/1999/xhtml\"><div class=\"hapiHeaderText\">AssPrfDELRsltDtTime_EQIPStart <b>DENOMPASS </b></div><table class=\"hapiPropertyTable\"><tbody><tr><td>Date of birth</td><td><span>01 February 2004</span></td></tr></tbody></table></div>"
        },
        "extension": [
          {
            "url": "http://hl7.org/fhir/us/core/StructureDefinition/us-core-race",
            "extension": [
              {
                "url": "ombCategory",
                "valueCoding": {
                  "system": "urn:oid:2.16.840.1.113883.6.238",
                  "code": "1002-5",
                  "display": "American Indian or Alaska Native",
                  "userSelected": true
                }
              },
              {
                "url": "text",
                "valueString": "American Indian or Alaska Native"
              }
            ]
          },
          {
            "url": "http://hl7.org/fhir/us/core/StructureDefinition/us-core-ethnicity",
            "extension": [
              {
                "url": "ombCategory",
                "valueCoding": {
                  "system": "urn:oid:2.16.840.1.113883.6.238",
                  "code": "2135-2",
                  "display": "Hispanic or Latino",
                  "userSelected": true
                }
              },
              {
                "url": "text",
                "valueString": "Hispanic or Latino"
              }
            ]
          }
        ],
        "identifier": [
          {
            "type": {
              "coding": [
                {
                  "system": "http://terminology.hl7.org/CodeSystem/v2-0203",
                  "code": "MR"
                }
              ]
            },
            "system": "https://bonnie-fhir.healthit.gov/",
            "value": "6356cc6154e383debade759d"
          }
        ],
        "active": true,
        "name": [
          {
            "use": "usual",
            "family": "DENOMFail",
            "given": [
              "LastAssPrfEDDRelvTm42WksB4DelDtTimeEDDResultIsNull"
            ]
          }
        ],
        "gender": "female",
        "birthDate": "1970-02-01"
      },
      "request": {
        "method": "PUT",
        "url": "Patient/bed0d351-9de6-480b-b3d0-fb44d6fa8e33"
      }
    },
    {
      "fullUrl": "https://madie.cms.gov/Observation/95948ce6-0684-4431-9ded-079dd64a8f5f",
      "resource": {
        "resourceType": "Observation",
        "id": "95948ce6-0684-4431-9ded-079dd64a8f5f",
        "meta": {
          "profile": [
            "http://hl7.org/fhir/us/qicore/StructureDefinition/qicore-observation"
          ]
        },
        "status": "final",
        "category": [
          {
            "coding": [
              {
                "system": "http://terminology.hl7.org/CodeSystem/observation-category",
                "code": "exam",
                "display": "exam",
                "userSelected": true
              }
            ]
          }
        ],
        "code": {
          "coding": [
            {
              "system": "http://loinc.org",
              "code": "93857-1"
            }
          ]
        },
        "subject": {
          "reference": "Patient/bed0d351-9de6-480b-b3d0-fb44d6fa8e33"
        },
        "effectiveDateTime": "2024-02-01T08:00:00.000+00:00",
        "valueDateTime": "2024-02-01T08:00:00+00:00"
      },
      "request": {
        "method": "PUT",
        "url": "Observation/95948ce6-0684-4431-9ded-079dd64a8f5f"
      }
    },
    {
      "fullUrl": "https://madie.cms.gov/Observation/1f5dd9a9-1c07-4e3d-a936-9ba79121b31e",
      "resource": {
        "resourceType": "Observation",
        "id": "1f5dd9a9-1c07-4e3d-a936-9ba79121b31e",
        "meta": {
          "profile": [
            "http://hl7.org/fhir/us/qicore/StructureDefinition/qicore-observation"
          ]
        },
        "status": "final",
        "category": [
          {
            "coding": [
              {
                "system": "http://terminology.hl7.org/CodeSystem/observation-category",
                "code": "exam",
                "display": "exam",
                "userSelected": true
              }
            ]
          }
        ],
        "code": {
          "coding": [
            {
              "system": "http://loinc.org",
              "code": "11778-8"
            }
          ]
        },
        "subject": {
          "reference": "Patient/bed0d351-9de6-480b-b3d0-fb44d6fa8e33"
        },
        "effectiveDateTime": "2023-04-13T08:00:00.000+00:00"
      },
      "request": {
        "method": "PUT",
        "url": "Observation/1f5dd9a9-1c07-4e3d-a936-9ba79121b31e"
      }
    },
    {
      "fullUrl": "https://madie.cms.gov/Encounter/e2666d6c-cf90-498a-a962-e2a8871a2fce",
      "resource": {
        "resourceType": "Encounter",
        "id": "e2666d6c-cf90-498a-a962-e2a8871a2fce",
        "meta": {
          "profile": [
            "http://hl7.org/fhir/us/qicore/StructureDefinition/qicore-encounter"
          ]
        },
        "status": "finished",
        "class": {
          "system": "http://terminology.hl7.org/CodeSystem/v3-ActCode",
          "code": "IMP",
          "display": "inpatient encounter"
        },
        "type": [
          {
            "coding": [
              {
                "system": "http://snomed.info/sct",
                "code": "183452005"
              },
              {
                "system": "http://snomed.info/sct",
                "code": "32485007",
                "userSelected": true
              }
            ]
          }
        ],
        "subject": {
          "reference": "Patient/bed0d351-9de6-480b-b3d0-fb44d6fa8e33"
        },
        "period": {
          "start": "2024-01-30T08:00:00.000+00:00",
          "end": "2024-02-05T08:15:00.000+00:00"
        }
      },
      "request": {
        "method": "PUT",
        "url": "Encounter/e2666d6c-cf90-498a-a962-e2a8871a2fce"
      }
    },
    {
      "fullUrl": "https://madie.cms.gov/Procedure/5e7b2359-59e2-4a5f-9d62-3ded9db07cc4",
      "resource": {
        "resourceType": "Procedure",
        "id": "5e7b2359-59e2-4a5f-9d62-3ded9db07cc4",
        "meta": {
          "profile": [
            "http://hl7.org/fhir/us/qicore/StructureDefinition/qicore-procedure"
          ]
        },
        "extension": [
          {
            "url": "http://hl7.org/fhir/us/qicore/StructureDefinition/qicore-recorded",
            "valueDateTime": "2013-04-05T09:35:00-04:00"
          }
        ],
        "status": "completed",
        "code": {
          "coding": [
            {
              "system": "http://snomed.info/sct",
              "code": "10745001"
            },
            {
              "system": "http://snomed.info/sct",
              "code": "11466000",
              "userSelected": true
            }
          ]
        },
        "subject": {
          "reference": "Patient/bed0d351-9de6-480b-b3d0-fb44d6fa8e33"
        },
        "performedPeriod": {
          "start": "2024-02-01T08:00:00.000Z",
          "end": "2024-02-05T08:15:00.000Z"
        }
      },
      "request": {
        "method": "PUT",
        "url": "Procedure/5e7b2359-59e2-4a5f-9d62-3ded9db07cc4"
      }
    },
    {
      "fullUrl": "https://madie.cms.gov/Coverage/e36afab0-b8ef-42ad-a354-034478201922",
      "resource": {
        "resourceType": "Coverage",
        "id": "e36afab0-b8ef-42ad-a354-034478201922",
        "meta": {
          "profile": [
            "http://hl7.org/fhir/us/qicore/StructureDefinition/qicore-coverage"
          ]
        },
        "status": "active",
        "beneficiary": {
          "reference": "Patient/bed0d351-9de6-480b-b3d0-fb44d6fa8e33"
        },
        "payor": [
          {
            "reference": "Organization/fedaf916-1a9c-48fe-81ed-eea388120528"
          }
        ]
      },
      "request": {
        "method": "PUT",
        "url": "Coverage/e36afab0-b8ef-42ad-a354-034478201922"
      }
    },
    {
      "fullUrl": "https://madie.cms.gov/Organization/fedaf916-1a9c-48fe-81ed-eea388120528",
      "resource": {
        "resourceType": "Organization",
        "id": "fedaf916-1a9c-48fe-81ed-eea388120528",
        "meta": {
          "profile": [
            "http://hl7.org/fhir/us/qicore/StructureDefinition/qicore-organization"
          ]
        },
        "identifier": [
          {
            "use": "temp",
            "system": "urn:oid:2.16.840.1.113883.4.4",
            "value": "21-3259825"
          }
        ],
        "active": true,
        "type": [
          {
            "coding": [
              {
                "system": "http://terminology.hl7.org/CodeSystem/organization-type",
                "code": "pay",
                "display": "Payer"
              }
            ]
          }
        ],
        "name": "Blue Cross Blue Shield of Texas",
        "telecom": [
          {
            "system": "phone",
            "value": "(+1) 972-766-6900"
          }
        ],
        "address": [
          {
            "use": "billing",
            "type": "postal",
            "line": [
              "P.O. Box 660044"
            ],
            "city": "Dallas",
            "state": "TX",
            "postalCode": "75266-0044",
            "country": "USA"
          }
        ]
      },
      "request": {
        "method": "PUT",
        "url": "Organization/fedaf916-1a9c-48fe-81ed-eea388120528"
      }
    },
    {
      "fullUrl": "https://madie.cms.gov/Practitioner/50f91b99-d947-438b-8960-9a0a3b82028a",
      "resource": {
        "resourceType": "Practitioner",
        "id": "50f91b99-d947-438b-8960-9a0a3b82028a",
        "identifier": [
          {
            "system": "http://hl7.org/fhir/sid/us-npi",
            "value": "123456"
          }
        ],
        "name": [
          {
            "family": "Evil",
            "prefix": [
              "Dr"
            ]
          }
        ]
      },
      "request": {
        "method": "PUT",
        "url": "Practitioner/50f91b99-d947-438b-8960-9a0a3b82028a"
      }
    },
    {
      "fullUrl": "https://madie.cms.gov/MeasureReport/1f435839-c4a5-459f-9473-1c3b1f88eb89",
      "resource": {
        "resourceType": "MeasureReport",
        "id": "1f435839-c4a5-459f-9473-1c3b1f88eb89",
        "meta": {
          "profile": [
            "http://hl7.org/fhir/us/cqfmeasures/StructureDefinition/test-case-cqfm"
          ]
        },
        "contained": [
          {
            "resourceType": "Parameters",
            "id": "1af902eb-38a1-45c9-8fad-7837a47e379d-parameters",
            "parameter": [
              {
                "name": "subject",
                "valueString": "bed0d351-9de6-480b-b3d0-fb44d6fa8e33"
              }
            ]
          }
        ],
        "extension": [
          {
            "url": "http://hl7.org/fhir/us/cqfmeasures/StructureDefinition/cqfm-inputParameters",
            "valueReference": {
              "reference": "#1af902eb-38a1-45c9-8fad-7837a47e379d-parameters"
            }
          },
          {
            "url": "http://hl7.org/fhir/us/cqfmeasures/StructureDefinition/cqfm-testCaseDescription",
            "valueMarkdown": "Last assessment Performed, Estimated Delivery Date, Relevant time, 42 weeks before Delivery Result Date/Time.  However, EDD Result is null.\n"
          }
        ],
        "modifierExtension": [
          {
            "url": "http://hl7.org/fhir/us/cqfmeasures/StructureDefinition/cqfm-isTestCase",
            "valueBoolean": true
          }
        ],
        "status": "complete",
        "type": "individual",
        "measure": "https://madie.cms.gov/Measure/SevereObstetricComplicationsFHIR",
        "period": {
          "start": "2024-01-01",
          "end": "2024-12-31"
        },
        "group": [
          {
            "population": [
              {
                "code": {
                  "coding": [
                    {
                      "system": "http://terminology.hl7.org/CodeSystem/measure-population",
                      "code": "initial-population",
                      "display": "Initial Population"
                    }
                  ]
                },
                "count": 1
              },
              {
                "code": {
                  "coding": [
                    {
                      "system": "http://terminology.hl7.org/CodeSystem/measure-population",
                      "code": "denominator",
                      "display": "Denominator"
                    }
                  ]
                },
                "count": 0
              },
              {
                "code": {
                  "coding": [
                    {
                      "system": "http://terminology.hl7.org/CodeSystem/measure-population",
                      "code": "denominator-exclusion",
                      "display": "Denominator Exclusion"
                    }
                  ]
                },
                "count": 0
              },
              {
                "code": {
                  "coding": [
                    {
                      "system": "http://terminology.hl7.org/CodeSystem/measure-population",
                      "code": "numerator",
                      "display": "Numerator"
                    }
                  ]
                },
                "count": 0
              }
            ]
          }
        ],
        "evaluatedResource": [
          {
            "reference": "Patient/bed0d351-9de6-480b-b3d0-fb44d6fa8e33"
          },
          {
            "reference": "Observation/95948ce6-0684-4431-9ded-079dd64a8f5f"
          },
          {
            "reference": "Observation/1f5dd9a9-1c07-4e3d-a936-9ba79121b31e"
          },
          {
            "reference": "Encounter/e2666d6c-cf90-498a-a962-e2a8871a2fce"
          },
          {
            "reference": "Procedure/5e7b2359-59e2-4a5f-9d62-3ded9db07cc4"
          },
          {
            "reference": "Coverage/e36afab0-b8ef-42ad-a354-034478201922"
          },
          {
            "reference": "Organization/fedaf916-1a9c-48fe-81ed-eea388120528"
          },
          {
            "reference": "Practitioner/50f91b99-d947-438b-8960-9a0a3b82028a"
          }
        ]
      },
      "request": {
        "method": "PUT",
        "url": "MeasureReport/1f435839-c4a5-459f-9473-1c3b1f88eb89"
      }
    }
  ]
}