{
  "resourceType": "Bundle",
  "id": "63ec096eccb3770120fea3a7",
  "type": "transaction",
  "entry": [
    {
      "fullUrl": "https://madie.cms.gov/Patient/567d284f-d5cf-4384-a74f-78ce52d9abc2",
      "resource": {
        "resourceType": "Patient",
        "id": "567d284f-d5cf-4384-a74f-78ce52d9abc2",
        "meta": {
          "profile": [
            "http://hl7.org/fhir/us/qicore/StructureDefinition/qicore-patient"
          ]
        },
        "text": {
          "status": "generated",
          "div": "<div xmlns=\"http://www.w3.org/1999/xhtml\"><div class=\"hapiHeaderText\">EncStartsBeforeMP <b>IPFAIL </b></div><table class=\"hapiPropertyTable\"><tbody><tr><td>Identifier</td><td>5357cf1fa2383d9a0e8f3ff5d42eaa9911ad131ad62a639f75e98789c2c8866b</td></tr><tr><td>Date of birth</td><td><span>15 June 1956</span></td></tr></tbody></table></div>"
        },
        "extension": [
          {
            "url": "http://hl7.org/fhir/us/core/StructureDefinition/us-core-race",
            "extension": [
              {
                "url": "ombCategory",
                "valueCoding": {
                  "system": "urn:oid:2.16.840.1.113883.6.238",
                  "code": "1002-5",
                  "display": "American Indian or Alaska Native",
                  "userSelected": true
                }
              },
              {
                "url": "text",
                "valueString": "American Indian or Alaska Native"
              }
            ]
          },
          {
            "url": "http://hl7.org/fhir/us/core/StructureDefinition/us-core-ethnicity",
            "extension": [
              {
                "url": "ombCategory",
                "valueCoding": {
                  "system": "urn:oid:2.16.840.1.113883.6.238",
                  "code": "2186-5",
                  "display": "Not Hispanic or Latino",
                  "userSelected": true
                }
              },
              {
                "url": "text",
                "valueString": "Not Hispanic or Latino"
              }
            ]
          }
        ],
        "identifier": [
          {
            "type": {
              "coding": [
                {
                  "system": "http://terminology.hl7.org/CodeSystem/v2-0203",
                  "code": "MR"
                }
              ]
            },
            "system": "https://bonnie-fhir.healthit.gov/",
            "value": "63ec096eccb3770120fea3a7"
          }
        ],
        "active": true,
        "name": [
          {
            "use": "usual",
            "family": "IPFail",
            "given": [
              "EncounterEndsB4StartofMP"
            ]
          }
        ],
        "gender": "male",
        "birthDate": "1956-06-15"
      },
      "request": {
        "method": "PUT",
        "url": "Patient/567d284f-d5cf-4384-a74f-78ce52d9abc2"
      }
    },
    {
      "fullUrl": "https://madie.cms.gov/Encounter/f99ff430-d95e-4c00-a864-16a358ea9660",
      "resource": {
        "resourceType": "Encounter",
        "id": "f99ff430-d95e-4c00-a864-16a358ea9660",
        "meta": {
          "profile": [
            "http://hl7.org/fhir/us/qicore/StructureDefinition/qicore-encounter"
          ]
        },
        "status": "finished",
        "class": {
          "system": "http://terminology.hl7.org/CodeSystem/v3-ActCode",
          "code": "IMP",
          "display": "inpatient encounter"
        },
        "type": [
          {
            "coding": [
              {
                "system": "http://snomed.info/sct",
                "code": "183452005"
              }
            ]
          }
        ],
        "subject": {
          "reference": "Patient/567d284f-d5cf-4384-a74f-78ce52d9abc2"
        },
        "period": {
          "start": "2025-06-26T08:00:00.000+00:00",
          "end": "2025-06-30T11:59:00.000+00:00"
        },
        "length": {
          "value": 5,
          "unit": "days"
        }
      },
      "request": {
        "method": "PUT",
        "url": "Encounter/f99ff430-d95e-4c00-a864-16a358ea9660"
      }
    },
    {
      "fullUrl": "https://madie.cms.gov/Coverage/88d7d681-643b-4480-950c-273c58ddd889",
      "resource": {
        "resourceType": "Coverage",
        "id": "88d7d681-643b-4480-950c-273c58ddd889",
        "meta": {
          "profile": [
            "http://hl7.org/fhir/us/qicore/StructureDefinition/qicore-coverage"
          ]
        },
        "status": "active",
        "type": {
          "coding": [
            {
              "system": "https://nahdo.org/sopt",
              "version": "9.2",
              "code": "1",
              "display": "MEDICARE",
              "userSelected": true
            }
          ]
        },
        "beneficiary": {
          "reference": "Patient/567d284f-d5cf-4384-a74f-78ce52d9abc2"
        },
        "period": {
          "start": "2024-12-01T00:00:00+00:00"
        },
        "payor": [
          {
            "reference": "Organization/4c23fd2a-9d11-4f7a-90a4-0f7f43ce35ea"
          }
        ]
      },
      "request": {
        "method": "PUT",
        "url": "Coverage/88d7d681-643b-4480-950c-273c58ddd889"
      }
    },
    {
      "fullUrl": "https://madie.cms.gov/Organization/4c23fd2a-9d11-4f7a-90a4-0f7f43ce35ea",
      "resource": {
        "resourceType": "Organization",
        "id": "4c23fd2a-9d11-4f7a-90a4-0f7f43ce35ea",
        "meta": {
          "profile": [
            "http://hl7.org/fhir/us/qicore/StructureDefinition/qicore-organization"
          ]
        },
        "identifier": [
          {
            "use": "temp",
            "system": "urn:oid:2.16.840.1.113883.4.4",
            "value": "21-3259825"
          }
        ],
        "active": true,
        "type": [
          {
            "coding": [
              {
                "system": "http://terminology.hl7.org/CodeSystem/organization-type",
                "code": "pay",
                "display": "Payer"
              }
            ]
          }
        ],
        "name": "Blue Cross Blue Shield of Texas",
        "telecom": [
          {
            "system": "phone",
            "value": "(+1) 972-766-6900"
          }
        ],
        "address": [
          {
            "use": "billing",
            "type": "postal",
            "line": [
              "P.O. Box 660044"
            ],
            "city": "Dallas",
            "state": "TX",
            "postalCode": "75266-0044",
            "country": "USA"
          }
        ]
      },
      "request": {
        "method": "PUT",
        "url": "Organization/4c23fd2a-9d11-4f7a-90a4-0f7f43ce35ea"
      }
    },
    {
      "fullUrl": "https://madie.cms.gov/Practitioner/b486e402-cbdf-46ca-bf38-2c7fad936f90",
      "resource": {
        "resourceType": "Practitioner",
        "id": "b486e402-cbdf-46ca-bf38-2c7fad936f90",
        "meta": {
          "profile": [
            "http://hl7.org/fhir/us/qicore/StructureDefinition/qicore-practitioner"
          ]
        },
        "identifier": [
          {
            "system": "http://hl7.org/fhir/sid/us-npi",
            "value": "123456"
          }
        ],
        "name": [
          {
            "family": "Evil",
            "prefix": [
              "Dr"
            ]
          }
        ]
      },
      "request": {
        "method": "PUT",
        "url": "Practitioner/b486e402-cbdf-46ca-bf38-2c7fad936f90"
      }
    },
    {
      "fullUrl": "https://madie.cms.gov/MeasureReport/ce44a174-6cfb-4ca9-bc3d-dc890d449338",
      "resource": {
        "resourceType": "MeasureReport",
        "id": "ce44a174-6cfb-4ca9-bc3d-dc890d449338",
        "meta": {
          "profile": [
            "http://hl7.org/fhir/us/cqfmeasures/StructureDefinition/test-case-cqfm"
          ]
        },
        "contained": [
          {
            "resourceType": "Parameters",
            "id": "ecb1f684-b72a-48d3-8323-fbd954b90ae3-parameters",
            "parameter": [
              {
                "name": "subject",
                "valueString": "567d284f-d5cf-4384-a74f-78ce52d9abc2"
              }
            ]
          }
        ],
        "extension": [
          {
            "url": "http://hl7.org/fhir/us/cqfmeasures/StructureDefinition/cqfm-inputParameters",
            "valueReference": {
              "reference": "#ecb1f684-b72a-48d3-8323-fbd954b90ae3-parameters"
            }
          },
          {
            "url": "http://hl7.org/fhir/us/cqfmeasures/StructureDefinition/cqfm-testCaseDescription",
            "valueMarkdown": "Encounter ends (06/30) one day before start of measurement period.\n "
          }
        ],
        "modifierExtension": [
          {
            "url": "http://hl7.org/fhir/us/cqfmeasures/StructureDefinition/cqfm-isTestCase",
            "valueBoolean": true
          }
        ],
        "status": "complete",
        "type": "individual",
        "measure": "https://madie.cms.gov/Measure/HybridHospitalWideMortalityFHIR",
        "period": {
          "start": "2025-07-01",
          "end": "2026-06-30"
        },
        "group": [
          {
            "population": [
              {
                "code": {
                  "coding": [
                    {
                      "system": "http://terminology.hl7.org/CodeSystem/measure-population",
                      "code": "initial-population",
                      "display": "Initial Population"
                    }
                  ]
                },
                "count": 0
              }
            ]
          }
        ],
        "evaluatedResource": [
          {
            "reference": "Patient/567d284f-d5cf-4384-a74f-78ce52d9abc2"
          },
          {
            "reference": "Encounter/f99ff430-d95e-4c00-a864-16a358ea9660"
          },
          {
            "reference": "Coverage/88d7d681-643b-4480-950c-273c58ddd889"
          },
          {
            "reference": "Organization/4c23fd2a-9d11-4f7a-90a4-0f7f43ce35ea"
          },
          {
            "reference": "Practitioner/b486e402-cbdf-46ca-bf38-2c7fad936f90"
          }
        ]
      },
      "request": {
        "method": "PUT",
        "url": "MeasureReport/ce44a174-6cfb-4ca9-bc3d-dc890d449338"
      }
    }
  ]
}