{
  "resourceType": "Bundle",
  "id": "6129132302c62a011f2e5ef8",
  "type": "transaction",
  "entry": [
    {
      "fullUrl": "https://madie.cms.gov/Patient/cfb633fe-9edb-43f5-9872-2b6c55d968e4",
      "resource": {
        "resourceType": "Patient",
        "id": "cfb633fe-9edb-43f5-9872-2b6c55d968e4",
        "meta": {
          "profile": [
            "http://hl7.org/fhir/us/qicore/StructureDefinition/qicore-patient"
          ]
        },
        "text": {
          "status": "generated",
          "div": "<div xmlns=\"http://www.w3.org/1999/xhtml\"><div class=\"hapiHeaderText\">NoEncounter <b>IPFAIL </b></div><table class=\"hapiPropertyTable\"><tbody><tr><td>Identifier</td><td>3f8ba9c9e86d8bc227f4bde21d48d898</td></tr><tr><td>Date of birth</td><td><span>21 August 1993</span></td></tr></tbody></table></div>"
        },
        "extension": [
          {
            "url": "http://hl7.org/fhir/us/core/StructureDefinition/us-core-race",
            "extension": [
              {
                "url": "ombCategory",
                "valueCoding": {
                  "system": "urn:oid:2.16.840.1.113883.6.238",
                  "code": "1002-5",
                  "display": "American Indian or Alaska Native",
                  "userSelected": true
                }
              },
              {
                "url": "text",
                "valueString": "American Indian or Alaska Native"
              }
            ]
          },
          {
            "url": "http://hl7.org/fhir/us/core/StructureDefinition/us-core-ethnicity",
            "extension": [
              {
                "url": "ombCategory",
                "valueCoding": {
                  "system": "urn:oid:2.16.840.1.113883.6.238",
                  "code": "2135-2",
                  "display": "Hispanic or Latino",
                  "userSelected": true
                }
              },
              {
                "url": "text",
                "valueString": "Hispanic or Latino"
              }
            ]
          }
        ],
        "identifier": [
          {
            "type": {
              "coding": [
                {
                  "system": "http://terminology.hl7.org/CodeSystem/v2-0203",
                  "code": "MR"
                }
              ]
            },
            "system": "https://bonnie-fhir.healthit.gov/",
            "value": "6129132302c62a011f2e5ef8"
          }
        ],
        "active": true,
        "name": [
          {
            "use": "usual",
            "family": "IPFail",
            "given": [
              "NoEncounter"
            ]
          }
        ],
        "gender": "male",
        "birthDate": "2002-08-21"
      },
      "request": {
        "method": "PUT",
        "url": "Patient/cfb633fe-9edb-43f5-9872-2b6c55d968e4"
      }
    },
    {
      "fullUrl": "https://madie.cms.gov/Coverage/df6574f2-1751-4b37-a610-64bb09d64057",
      "resource": {
        "resourceType": "Coverage",
        "id": "df6574f2-1751-4b37-a610-64bb09d64057",
        "meta": {
          "profile": [
            "http://hl7.org/fhir/us/qicore/StructureDefinition/qicore-coverage"
          ]
        },
        "status": "active",
        "beneficiary": {
          "reference": "Patient/cfb633fe-9edb-43f5-9872-2b6c55d968e4"
        },
        "payor": [
          {
            "reference": "Organization/47f61193-971f-47b6-bb35-24d5f08fb34c"
          }
        ]
      },
      "request": {
        "method": "PUT",
        "url": "Coverage/df6574f2-1751-4b37-a610-64bb09d64057"
      }
    },
    {
      "fullUrl": "https://madie.cms.gov/Organization/47f61193-971f-47b6-bb35-24d5f08fb34c",
      "resource": {
        "resourceType": "Organization",
        "id": "47f61193-971f-47b6-bb35-24d5f08fb34c",
        "meta": {
          "profile": [
            "http://hl7.org/fhir/us/qicore/StructureDefinition/qicore-organization"
          ]
        },
        "identifier": [
          {
            "use": "temp",
            "system": "urn:oid:2.16.840.1.113883.4.4",
            "value": "21-3259825"
          }
        ],
        "active": true,
        "type": [
          {
            "coding": [
              {
                "system": "http://terminology.hl7.org/CodeSystem/organization-type",
                "code": "pay",
                "display": "Payer"
              }
            ]
          }
        ],
        "name": "Blue Cross Blue Shield of Texas",
        "telecom": [
          {
            "system": "phone",
            "value": "(+1) 972-766-6900"
          }
        ],
        "address": [
          {
            "use": "billing",
            "type": "postal",
            "line": [
              "P.O. Box 660044"
            ],
            "city": "Dallas",
            "state": "TX",
            "postalCode": "75266-0044",
            "country": "USA"
          }
        ]
      },
      "request": {
        "method": "PUT",
        "url": "Organization/47f61193-971f-47b6-bb35-24d5f08fb34c"
      }
    },
    {
      "fullUrl": "https://madie.cms.gov/MeasureReport/ac71fbc4-11e4-479a-95f8-68f51ce553ef",
      "resource": {
        "resourceType": "MeasureReport",
        "id": "ac71fbc4-11e4-479a-95f8-68f51ce553ef",
        "meta": {
          "profile": [
            "http://hl7.org/fhir/us/cqfmeasures/StructureDefinition/test-case-cqfm"
          ]
        },
        "contained": [
          {
            "resourceType": "Parameters",
            "id": "e4f55d81-2b22-491d-8bc4-331e0e04cf07-parameters",
            "parameter": [
              {
                "name": "subject",
                "valueString": "cfb633fe-9edb-43f5-9872-2b6c55d968e4"
              }
            ]
          }
        ],
        "extension": [
          {
            "url": "http://hl7.org/fhir/us/cqfmeasures/StructureDefinition/cqfm-inputParameters",
            "valueReference": {
              "reference": "#e4f55d81-2b22-491d-8bc4-331e0e04cf07-parameters"
            }
          },
          {
            "url": "http://hl7.org/fhir/us/cqfmeasures/StructureDefinition/cqfm-testCaseDescription",
            "valueMarkdown": "IPFail due to no encounter"
          }
        ],
        "modifierExtension": [
          {
            "url": "http://hl7.org/fhir/us/cqfmeasures/StructureDefinition/cqfm-isTestCase",
            "valueBoolean": true
          }
        ],
        "status": "complete",
        "type": "individual",
        "measure": "https://madie.cms.gov/Measure/DischargedonAntithromboticTherapyFHIR",
        "period": {
          "start": "2025-01-01",
          "end": "2025-12-31"
        },
        "group": [
          {
            "population": [
              {
                "code": {
                  "coding": [
                    {
                      "system": "http://terminology.hl7.org/CodeSystem/measure-population",
                      "code": "initial-population",
                      "display": "Initial Population"
                    }
                  ]
                },
                "count": 0
              },
              {
                "code": {
                  "coding": [
                    {
                      "system": "http://terminology.hl7.org/CodeSystem/measure-population",
                      "code": "denominator",
                      "display": "Denominator"
                    }
                  ]
                },
                "count": 0
              },
              {
                "code": {
                  "coding": [
                    {
                      "system": "http://terminology.hl7.org/CodeSystem/measure-population",
                      "code": "denominator-exclusion",
                      "display": "Denominator Exclusion"
                    }
                  ]
                },
                "count": 0
              },
              {
                "code": {
                  "coding": [
                    {
                      "system": "http://terminology.hl7.org/CodeSystem/measure-population",
                      "code": "numerator",
                      "display": "Numerator"
                    }
                  ]
                },
                "count": 0
              },
              {
                "code": {
                  "coding": [
                    {
                      "system": "http://terminology.hl7.org/CodeSystem/measure-population",
                      "code": "denominator-exception",
                      "display": "Denominator Exception"
                    }
                  ]
                },
                "count": 0
              }
            ]
          }
        ],
        "evaluatedResource": [
          {
            "reference": "Patient/cfb633fe-9edb-43f5-9872-2b6c55d968e4"
          },
          {
            "reference": "Coverage/df6574f2-1751-4b37-a610-64bb09d64057"
          },
          {
            "reference": "Organization/47f61193-971f-47b6-bb35-24d5f08fb34c"
          }
        ]
      },
      "request": {
        "method": "PUT",
        "url": "MeasureReport/ac71fbc4-11e4-479a-95f8-68f51ce553ef"
      }
    }
  ]
}