{
  "resourceType": "Bundle",
  "id": "633b3fa00968f80122503d13",
  "type": "transaction",
  "entry": [
    {
      "fullUrl": "https://madie.cms.gov/Patient/e2dbe38a-194f-4e4c-84ba-1817377284f2",
      "resource": {
        "resourceType": "Patient",
        "id": "e2dbe38a-194f-4e4c-84ba-1817377284f2",
        "meta": {
          "profile": [
            "http://hl7.org/fhir/us/qicore/StructureDefinition/qicore-patient"
          ]
        },
        "text": {
          "status": "generated",
          "div": "<div xmlns=\"http://www.w3.org/1999/xhtml\"><div class=\"hapiHeaderText\">DelProcRelDtTmEQEDStart <b>IPPASS </b></div><table class=\"hapiPropertyTable\"><tbody><tr><td>Date of birth</td><td><span>31 January 2004</span></td></tr></tbody></table></div>"
        },
        "extension": [
          {
            "url": "http://hl7.org/fhir/us/core/StructureDefinition/us-core-race",
            "extension": [
              {
                "url": "ombCategory",
                "valueCoding": {
                  "system": "urn:oid:2.16.840.1.113883.6.238",
                  "code": "1002-5",
                  "display": "American Indian or Alaska Native",
                  "userSelected": true
                }
              },
              {
                "url": "text",
                "valueString": "American Indian or Alaska Native"
              }
            ]
          },
          {
            "url": "http://hl7.org/fhir/us/core/StructureDefinition/us-core-ethnicity",
            "extension": [
              {
                "url": "ombCategory",
                "valueCoding": {
                  "system": "urn:oid:2.16.840.1.113883.6.238",
                  "code": "2135-2",
                  "display": "Hispanic or Latino",
                  "userSelected": true
                }
              },
              {
                "url": "text",
                "valueString": "Hispanic or Latino"
              }
            ]
          }
        ],
        "identifier": [
          {
            "type": {
              "coding": [
                {
                  "system": "http://terminology.hl7.org/CodeSystem/v2-0203",
                  "code": "MR"
                }
              ]
            },
            "system": "https://bonnie-fhir.healthit.gov/",
            "value": "633b3fa00968f80122503d13"
          }
        ],
        "active": true,
        "name": [
          {
            "use": "usual",
            "family": "IPPass",
            "given": [
              "DelProcRelDtTmEQEDStart"
            ]
          }
        ],
        "gender": "female",
        "birthDate": "2004-01-31"
      },
      "request": {
        "method": "PUT",
        "url": "Patient/e2dbe38a-194f-4e4c-84ba-1817377284f2"
      }
    },
    {
      "fullUrl": "https://madie.cms.gov/Encounter/aa38104e-a2e3-492c-accc-49442044e4cc",
      "resource": {
        "resourceType": "Encounter",
        "id": "aa38104e-a2e3-492c-accc-49442044e4cc",
        "meta": {
          "profile": [
            "http://hl7.org/fhir/us/qicore/StructureDefinition/qicore-encounter"
          ]
        },
        "status": "finished",
        "class": {
          "system": "http://terminology.hl7.org/CodeSystem/v3-ActCode",
          "code": "IMP",
          "display": "inpatient encounter"
        },
        "type": [
          {
            "coding": [
              {
                "system": "http://snomed.info/sct",
                "code": "183452005"
              }
            ]
          }
        ],
        "subject": {
          "reference": "Patient/e2dbe38a-194f-4e4c-84ba-1817377284f2"
        },
        "period": {
          "start": "2024-02-01T09:00:00.000Z",
          "end": "2024-02-05T08:15:00.000Z"
        }
      },
      "request": {
        "method": "PUT",
        "url": "Encounter/aa38104e-a2e3-492c-accc-49442044e4cc"
      }
    },
    {
      "fullUrl": "https://madie.cms.gov/Encounter/dbc8851b-6d5a-4355-8aff-c0a0e19cf6e2",
      "resource": {
        "resourceType": "Encounter",
        "id": "dbc8851b-6d5a-4355-8aff-c0a0e19cf6e2",
        "meta": {
          "profile": [
            "http://hl7.org/fhir/us/qicore/StructureDefinition/qicore-encounter"
          ]
        },
        "status": "finished",
        "class": {
          "system": "http://terminology.hl7.org/CodeSystem/v3-ActCode",
          "code": "IMP",
          "display": "inpatient encounter"
        },
        "type": [
          {
            "coding": [
              {
                "system": "http://snomed.info/sct",
                "code": "448951000124107"
              }
            ]
          }
        ],
        "subject": {
          "reference": "Patient/e2dbe38a-194f-4e4c-84ba-1817377284f2"
        },
        "period": {
          "start": "2024-02-01T08:00:00.000Z",
          "end": "2024-02-01T08:59:00.000Z"
        }
      },
      "request": {
        "method": "PUT",
        "url": "Encounter/dbc8851b-6d5a-4355-8aff-c0a0e19cf6e2"
      }
    },
    {
      "fullUrl": "https://madie.cms.gov/Encounter/fcc53af9-931a-4428-a37e-524a55a8c9a4",
      "resource": {
        "resourceType": "Encounter",
        "id": "fcc53af9-931a-4428-a37e-524a55a8c9a4",
        "meta": {
          "profile": [
            "http://hl7.org/fhir/us/qicore/StructureDefinition/qicore-encounter"
          ]
        },
        "status": "finished",
        "class": {
          "system": "http://terminology.hl7.org/CodeSystem/v3-ActCode",
          "code": "IMP",
          "display": "inpatient encounter"
        },
        "type": [
          {
            "coding": [
              {
                "system": "http://snomed.info/sct",
                "code": "4525004"
              }
            ]
          }
        ],
        "subject": {
          "reference": "Patient/e2dbe38a-194f-4e4c-84ba-1817377284f2"
        },
        "period": {
          "start": "2024-02-01T07:00:00.000Z",
          "end": "2024-02-01T07:59:00.000Z"
        }
      },
      "request": {
        "method": "PUT",
        "url": "Encounter/fcc53af9-931a-4428-a37e-524a55a8c9a4"
      }
    },
    {
      "fullUrl": "https://madie.cms.gov/Procedure/d804a3f5-8b51-4d94-a157-19440a49044f",
      "resource": {
        "resourceType": "Procedure",
        "id": "d804a3f5-8b51-4d94-a157-19440a49044f",
        "meta": {
          "profile": [
            "http://hl7.org/fhir/us/qicore/StructureDefinition/qicore-procedure"
          ]
        },
        "extension": [
          {
            "url": "http://hl7.org/fhir/us/qicore/StructureDefinition/qicore-recorded",
            "valueDateTime": "2013-04-05T09:35:00-04:00"
          }
        ],
        "status": "completed",
        "code": {
          "coding": [
            {
              "system": "http://snomed.info/sct",
              "code": "10745001"
            }
          ]
        },
        "subject": {
          "reference": "Patient/e2dbe38a-194f-4e4c-84ba-1817377284f2"
        },
        "performedDateTime": "2024-02-01T07:00:00.000+00:00"
      },
      "request": {
        "method": "PUT",
        "url": "Procedure/d804a3f5-8b51-4d94-a157-19440a49044f"
      }
    },
    {
      "fullUrl": "https://madie.cms.gov/Coverage/4e8c4174-381f-4749-a2a8-cb20b07337e3",
      "resource": {
        "resourceType": "Coverage",
        "id": "4e8c4174-381f-4749-a2a8-cb20b07337e3",
        "meta": {
          "profile": [
            "http://hl7.org/fhir/us/qicore/StructureDefinition/qicore-coverage"
          ]
        },
        "status": "active",
        "beneficiary": {
          "reference": "Patient/e2dbe38a-194f-4e4c-84ba-1817377284f2"
        },
        "payor": [
          {
            "reference": "Organization/8bf389ff-f505-484f-940b-aaeb0c39f701"
          }
        ]
      },
      "request": {
        "method": "PUT",
        "url": "Coverage/4e8c4174-381f-4749-a2a8-cb20b07337e3"
      }
    },
    {
      "fullUrl": "https://madie.cms.gov/Organization/8bf389ff-f505-484f-940b-aaeb0c39f701",
      "resource": {
        "resourceType": "Organization",
        "id": "8bf389ff-f505-484f-940b-aaeb0c39f701",
        "meta": {
          "profile": [
            "http://hl7.org/fhir/us/qicore/StructureDefinition/qicore-organization"
          ]
        },
        "identifier": [
          {
            "use": "temp",
            "system": "urn:oid:2.16.840.1.113883.4.4",
            "value": "21-3259825"
          }
        ],
        "active": true,
        "type": [
          {
            "coding": [
              {
                "system": "http://terminology.hl7.org/CodeSystem/organization-type",
                "code": "pay",
                "display": "Payer"
              }
            ]
          }
        ],
        "name": "Blue Cross Blue Shield of Texas",
        "telecom": [
          {
            "system": "phone",
            "value": "(+1) 972-766-6900"
          }
        ],
        "address": [
          {
            "use": "billing",
            "type": "postal",
            "line": [
              "P.O. Box 660044"
            ],
            "city": "Dallas",
            "state": "TX",
            "postalCode": "75266-0044",
            "country": "USA"
          }
        ]
      },
      "request": {
        "method": "PUT",
        "url": "Organization/8bf389ff-f505-484f-940b-aaeb0c39f701"
      }
    },
    {
      "fullUrl": "https://madie.cms.gov/Practitioner/d6a14f89-2d31-4180-abaf-6a21a6e4634a",
      "resource": {
        "resourceType": "Practitioner",
        "id": "d6a14f89-2d31-4180-abaf-6a21a6e4634a",
        "identifier": [
          {
            "system": "http://hl7.org/fhir/sid/us-npi",
            "value": "123456"
          }
        ],
        "name": [
          {
            "family": "Evil",
            "prefix": [
              "Dr"
            ]
          }
        ]
      },
      "request": {
        "method": "PUT",
        "url": "Practitioner/d6a14f89-2d31-4180-abaf-6a21a6e4634a"
      }
    },
    {
      "fullUrl": "https://madie.cms.gov/MeasureReport/332dabd2-b223-4555-8c1d-e702f1152b9e",
      "resource": {
        "resourceType": "MeasureReport",
        "id": "332dabd2-b223-4555-8c1d-e702f1152b9e",
        "meta": {
          "profile": [
            "http://hl7.org/fhir/us/cqfmeasures/StructureDefinition/test-case-cqfm"
          ]
        },
        "contained": [
          {
            "resourceType": "Parameters",
            "id": "258bc511-3df4-41ad-9647-b0b90eca83bf-parameters",
            "parameter": [
              {
                "name": "subject",
                "valueString": "e2dbe38a-194f-4e4c-84ba-1817377284f2"
              }
            ]
          }
        ],
        "extension": [
          {
            "url": "http://hl7.org/fhir/us/cqfmeasures/StructureDefinition/cqfm-inputParameters",
            "valueReference": {
              "reference": "#258bc511-3df4-41ad-9647-b0b90eca83bf-parameters"
            }
          },
          {
            "url": "http://hl7.org/fhir/us/cqfmeasures/StructureDefinition/cqfm-testCaseDescription",
            "valueMarkdown": "Delivery Procedure rel date/time = ED start.  ED/OBS/IP all meet global hospitalization criteria.\n"
          }
        ],
        "modifierExtension": [
          {
            "url": "http://hl7.org/fhir/us/cqfmeasures/StructureDefinition/cqfm-isTestCase",
            "valueBoolean": true
          }
        ],
        "status": "complete",
        "type": "individual",
        "measure": "https://madie.cms.gov/Measure/SevereObstetricComplicationsFHIR",
        "period": {
          "start": "2024-01-01",
          "end": "2024-12-31"
        },
        "group": [
          {
            "population": [
              {
                "code": {
                  "coding": [
                    {
                      "system": "http://terminology.hl7.org/CodeSystem/measure-population",
                      "code": "initial-population",
                      "display": "Initial Population"
                    }
                  ]
                },
                "count": 1
              },
              {
                "code": {
                  "coding": [
                    {
                      "system": "http://terminology.hl7.org/CodeSystem/measure-population",
                      "code": "denominator",
                      "display": "Denominator"
                    }
                  ]
                },
                "count": 0
              },
              {
                "code": {
                  "coding": [
                    {
                      "system": "http://terminology.hl7.org/CodeSystem/measure-population",
                      "code": "denominator-exclusion",
                      "display": "Denominator Exclusion"
                    }
                  ]
                },
                "count": 0
              },
              {
                "code": {
                  "coding": [
                    {
                      "system": "http://terminology.hl7.org/CodeSystem/measure-population",
                      "code": "numerator",
                      "display": "Numerator"
                    }
                  ]
                },
                "count": 0
              }
            ]
          }
        ],
        "evaluatedResource": [
          {
            "reference": "Patient/e2dbe38a-194f-4e4c-84ba-1817377284f2"
          },
          {
            "reference": "Encounter/aa38104e-a2e3-492c-accc-49442044e4cc"
          },
          {
            "reference": "Encounter/dbc8851b-6d5a-4355-8aff-c0a0e19cf6e2"
          },
          {
            "reference": "Encounter/fcc53af9-931a-4428-a37e-524a55a8c9a4"
          },
          {
            "reference": "Procedure/d804a3f5-8b51-4d94-a157-19440a49044f"
          },
          {
            "reference": "Coverage/4e8c4174-381f-4749-a2a8-cb20b07337e3"
          },
          {
            "reference": "Organization/8bf389ff-f505-484f-940b-aaeb0c39f701"
          },
          {
            "reference": "Practitioner/d6a14f89-2d31-4180-abaf-6a21a6e4634a"
          }
        ]
      },
      "request": {
        "method": "PUT",
        "url": "MeasureReport/332dabd2-b223-4555-8c1d-e702f1152b9e"
      }
    }
  ]
}