{
  "resourceType": "Bundle",
  "id": "633b3f9e0968f80122503cbd",
  "type": "transaction",
  "entry": [
    {
      "fullUrl": "https://madie.cms.gov/Patient/b0ca975d-dd29-4caa-9c27-832880fbcce3",
      "resource": {
        "resourceType": "Patient",
        "id": "b0ca975d-dd29-4caa-9c27-832880fbcce3",
        "meta": {
          "profile": [
            "http://hl7.org/fhir/us/qicore/StructureDefinition/qicore-patient"
          ]
        },
        "text": {
          "status": "generated",
          "div": "<div xmlns=\"http://www.w3.org/1999/xhtml\"><div class=\"hapiHeaderText\">Age8OnDayAftEncStart <b>IPFAIL </b></div><table class=\"hapiPropertyTable\"><tbody><tr><td>Date of birth</td><td><span>02 February 2004</span></td></tr></tbody></table></div>"
        },
        "extension": [
          {
            "url": "http://hl7.org/fhir/us/core/StructureDefinition/us-core-race",
            "extension": [
              {
                "url": "ombCategory",
                "valueCoding": {
                  "system": "urn:oid:2.16.840.1.113883.6.238",
                  "code": "1002-5",
                  "display": "American Indian or Alaska Native",
                  "userSelected": true
                }
              },
              {
                "url": "text",
                "valueString": "American Indian or Alaska Native"
              }
            ]
          },
          {
            "url": "http://hl7.org/fhir/us/core/StructureDefinition/us-core-ethnicity",
            "extension": [
              {
                "url": "ombCategory",
                "valueCoding": {
                  "system": "urn:oid:2.16.840.1.113883.6.238",
                  "code": "2135-2",
                  "display": "Hispanic or Latino",
                  "userSelected": true
                }
              },
              {
                "url": "text",
                "valueString": "Hispanic or Latino"
              }
            ]
          }
        ],
        "identifier": [
          {
            "type": {
              "coding": [
                {
                  "system": "http://terminology.hl7.org/CodeSystem/v2-0203",
                  "code": "MR"
                }
              ]
            },
            "system": "https://bonnie-fhir.healthit.gov/",
            "value": "633b3f9e0968f80122503cbd"
          }
        ],
        "active": true,
        "name": [
          {
            "use": "usual",
            "family": "IPFail",
            "given": [
              "Age8OnDayAftEncStart"
            ]
          }
        ],
        "gender": "female",
        "birthDate": "2016-02-02"
      },
      "request": {
        "method": "PUT",
        "url": "Patient/b0ca975d-dd29-4caa-9c27-832880fbcce3"
      }
    },
    {
      "fullUrl": "https://madie.cms.gov/Encounter/66d0a355-d34d-463e-91e5-03abd5a17979",
      "resource": {
        "resourceType": "Encounter",
        "id": "66d0a355-d34d-463e-91e5-03abd5a17979",
        "meta": {
          "profile": [
            "http://hl7.org/fhir/us/qicore/StructureDefinition/qicore-encounter"
          ]
        },
        "status": "finished",
        "class": {
          "system": "http://terminology.hl7.org/CodeSystem/v3-ActCode",
          "code": "IMP",
          "display": "inpatient encounter"
        },
        "type": [
          {
            "coding": [
              {
                "system": "http://snomed.info/sct",
                "code": "183452005"
              }
            ]
          }
        ],
        "subject": {
          "reference": "Patient/b0ca975d-dd29-4caa-9c27-832880fbcce3"
        },
        "period": {
          "start": "2024-02-01T08:00:00.000Z",
          "end": "2024-02-05T08:15:00.000Z"
        }
      },
      "request": {
        "method": "PUT",
        "url": "Encounter/66d0a355-d34d-463e-91e5-03abd5a17979"
      }
    },
    {
      "fullUrl": "https://madie.cms.gov/Procedure/9f048245-0ee7-47a4-8aea-18d9b24685d8",
      "resource": {
        "resourceType": "Procedure",
        "id": "9f048245-0ee7-47a4-8aea-18d9b24685d8",
        "meta": {
          "profile": [
            "http://hl7.org/fhir/us/qicore/StructureDefinition/qicore-procedure"
          ]
        },
        "extension": [
          {
            "url": "http://hl7.org/fhir/us/qicore/StructureDefinition/qicore-recorded",
            "valueDateTime": "2013-04-05T09:35:00-04:00"
          }
        ],
        "status": "completed",
        "code": {
          "coding": [
            {
              "system": "http://snomed.info/sct",
              "code": "10745001"
            }
          ]
        },
        "subject": {
          "reference": "Patient/b0ca975d-dd29-4caa-9c27-832880fbcce3"
        },
        "performedPeriod": {
          "start": "2024-02-01T08:00:00.000Z",
          "end": "2024-02-05T08:15:00.000Z"
        }
      },
      "request": {
        "method": "PUT",
        "url": "Procedure/9f048245-0ee7-47a4-8aea-18d9b24685d8"
      }
    },
    {
      "fullUrl": "https://madie.cms.gov/Coverage/f557f62f-cbac-4f10-8441-bf9ba1a4580e",
      "resource": {
        "resourceType": "Coverage",
        "id": "f557f62f-cbac-4f10-8441-bf9ba1a4580e",
        "meta": {
          "profile": [
            "http://hl7.org/fhir/us/qicore/StructureDefinition/qicore-coverage"
          ]
        },
        "status": "active",
        "beneficiary": {
          "reference": "Patient/b0ca975d-dd29-4caa-9c27-832880fbcce3"
        },
        "payor": [
          {
            "reference": "Organization/93fb2e32-64a0-449f-88c5-4b7ed0d3fd24"
          }
        ]
      },
      "request": {
        "method": "PUT",
        "url": "Coverage/f557f62f-cbac-4f10-8441-bf9ba1a4580e"
      }
    },
    {
      "fullUrl": "https://madie.cms.gov/Organization/93fb2e32-64a0-449f-88c5-4b7ed0d3fd24",
      "resource": {
        "resourceType": "Organization",
        "id": "93fb2e32-64a0-449f-88c5-4b7ed0d3fd24",
        "meta": {
          "profile": [
            "http://hl7.org/fhir/us/qicore/StructureDefinition/qicore-organization"
          ]
        },
        "identifier": [
          {
            "use": "temp",
            "system": "urn:oid:2.16.840.1.113883.4.4",
            "value": "21-3259825"
          }
        ],
        "active": true,
        "type": [
          {
            "coding": [
              {
                "system": "http://terminology.hl7.org/CodeSystem/organization-type",
                "code": "pay",
                "display": "Payer"
              }
            ]
          }
        ],
        "name": "Blue Cross Blue Shield of Texas",
        "telecom": [
          {
            "system": "phone",
            "value": "(+1) 972-766-6900"
          }
        ],
        "address": [
          {
            "use": "billing",
            "type": "postal",
            "line": [
              "P.O. Box 660044"
            ],
            "city": "Dallas",
            "state": "TX",
            "postalCode": "75266-0044",
            "country": "USA"
          }
        ]
      },
      "request": {
        "method": "PUT",
        "url": "Organization/93fb2e32-64a0-449f-88c5-4b7ed0d3fd24"
      }
    },
    {
      "fullUrl": "https://madie.cms.gov/Practitioner/890788b9-bc3b-438c-bb24-a6dcc50f0130",
      "resource": {
        "resourceType": "Practitioner",
        "id": "890788b9-bc3b-438c-bb24-a6dcc50f0130",
        "identifier": [
          {
            "system": "http://hl7.org/fhir/sid/us-npi",
            "value": "123456"
          }
        ],
        "name": [
          {
            "family": "Evil",
            "prefix": [
              "Dr"
            ]
          }
        ]
      },
      "request": {
        "method": "PUT",
        "url": "Practitioner/890788b9-bc3b-438c-bb24-a6dcc50f0130"
      }
    },
    {
      "fullUrl": "https://madie.cms.gov/MeasureReport/7d64a9e0-7c75-4e2a-8943-301501397068",
      "resource": {
        "resourceType": "MeasureReport",
        "id": "7d64a9e0-7c75-4e2a-8943-301501397068",
        "meta": {
          "profile": [
            "http://hl7.org/fhir/us/cqfmeasures/StructureDefinition/test-case-cqfm"
          ]
        },
        "contained": [
          {
            "resourceType": "Parameters",
            "id": "f4fe15c7-4e32-46b9-a713-d1ed2057e863-parameters",
            "parameter": [
              {
                "name": "subject",
                "valueString": "b0ca975d-dd29-4caa-9c27-832880fbcce3"
              }
            ]
          }
        ],
        "extension": [
          {
            "url": "http://hl7.org/fhir/us/cqfmeasures/StructureDefinition/cqfm-inputParameters",
            "valueReference": {
              "reference": "#f4fe15c7-4e32-46b9-a713-d1ed2057e863-parameters"
            }
          },
          {
            "url": "http://hl7.org/fhir/us/cqfmeasures/StructureDefinition/cqfm-testCaseDescription",
            "valueMarkdown": "Patient is 8 years of age on day after encounter start.\n"
          }
        ],
        "modifierExtension": [
          {
            "url": "http://hl7.org/fhir/us/cqfmeasures/StructureDefinition/cqfm-isTestCase",
            "valueBoolean": true
          }
        ],
        "status": "complete",
        "type": "individual",
        "measure": "https://madie.cms.gov/Measure/SevereObstetricComplicationsFHIR",
        "period": {
          "start": "2024-01-01",
          "end": "2024-12-31"
        },
        "group": [
          {
            "population": [
              {
                "code": {
                  "coding": [
                    {
                      "system": "http://terminology.hl7.org/CodeSystem/measure-population",
                      "code": "initial-population",
                      "display": "Initial Population"
                    }
                  ]
                },
                "count": 0
              },
              {
                "code": {
                  "coding": [
                    {
                      "system": "http://terminology.hl7.org/CodeSystem/measure-population",
                      "code": "denominator",
                      "display": "Denominator"
                    }
                  ]
                },
                "count": 0
              },
              {
                "code": {
                  "coding": [
                    {
                      "system": "http://terminology.hl7.org/CodeSystem/measure-population",
                      "code": "denominator-exclusion",
                      "display": "Denominator Exclusion"
                    }
                  ]
                },
                "count": 0
              },
              {
                "code": {
                  "coding": [
                    {
                      "system": "http://terminology.hl7.org/CodeSystem/measure-population",
                      "code": "numerator",
                      "display": "Numerator"
                    }
                  ]
                },
                "count": 0
              }
            ]
          }
        ],
        "evaluatedResource": [
          {
            "reference": "Patient/b0ca975d-dd29-4caa-9c27-832880fbcce3"
          },
          {
            "reference": "Encounter/66d0a355-d34d-463e-91e5-03abd5a17979"
          },
          {
            "reference": "Procedure/9f048245-0ee7-47a4-8aea-18d9b24685d8"
          },
          {
            "reference": "Coverage/f557f62f-cbac-4f10-8441-bf9ba1a4580e"
          },
          {
            "reference": "Organization/93fb2e32-64a0-449f-88c5-4b7ed0d3fd24"
          },
          {
            "reference": "Practitioner/890788b9-bc3b-438c-bb24-a6dcc50f0130"
          }
        ]
      },
      "request": {
        "method": "PUT",
        "url": "MeasureReport/7d64a9e0-7c75-4e2a-8943-301501397068"
      }
    }
  ]
}