{
  "resourceType": "Bundle",
  "id": "6129132902c62a011f2e615d",
  "type": "transaction",
  "entry": [
    {
      "fullUrl": "https://madie.cms.gov/Patient/57aa10f3-05ba-4e3c-a318-b1ca265a717c",
      "resource": {
        "resourceType": "Patient",
        "id": "57aa10f3-05ba-4e3c-a318-b1ca265a717c",
        "meta": {
          "profile": [
            "http://hl7.org/fhir/us/qicore/StructureDefinition/qicore-patient"
          ]
        },
        "text": {
          "status": "generated",
          "div": "<div xmlns=\"http://www.w3.org/1999/xhtml\"><div class=\"hapiHeaderText\">Expired <b>DENEXPASS </b></div><table class=\"hapiPropertyTable\"><tbody><tr><td>Identifier</td><td>abfefc9161c76bfb08745ea565eabb17</td></tr><tr><td>Date of birth</td><td><span>21 August 1994</span></td></tr></tbody></table></div>"
        },
        "extension": [
          {
            "url": "http://hl7.org/fhir/us/core/StructureDefinition/us-core-race",
            "extension": [
              {
                "url": "ombCategory",
                "valueCoding": {
                  "system": "urn:oid:2.16.840.1.113883.6.238",
                  "code": "1002-5",
                  "display": "American Indian or Alaska Native",
                  "userSelected": true
                }
              },
              {
                "url": "text",
                "valueString": "American Indian or Alaska Native"
              }
            ]
          },
          {
            "url": "http://hl7.org/fhir/us/core/StructureDefinition/us-core-ethnicity",
            "extension": [
              {
                "url": "ombCategory",
                "valueCoding": {
                  "system": "urn:oid:2.16.840.1.113883.6.238",
                  "code": "2135-2",
                  "display": "Hispanic or Latino",
                  "userSelected": true
                }
              },
              {
                "url": "text",
                "valueString": "Hispanic or Latino"
              }
            ]
          }
        ],
        "identifier": [
          {
            "type": {
              "coding": [
                {
                  "system": "http://terminology.hl7.org/CodeSystem/v2-0203",
                  "code": "MR"
                }
              ]
            },
            "system": "https://bonnie-fhir.healthit.gov/",
            "value": "6129132902c62a011f2e615d"
          }
        ],
        "active": true,
        "name": [
          {
            "use": "usual",
            "family": "DENEXPass",
            "given": [
              "Expired"
            ]
          }
        ],
        "gender": "male",
        "birthDate": "1994-08-21"
      },
      "request": {
        "method": "PUT",
        "url": "Patient/57aa10f3-05ba-4e3c-a318-b1ca265a717c"
      }
    },
    {
      "fullUrl": "https://madie.cms.gov/Encounter/3db133ed-b157-47b9-9214-4efa3ca17b31",
      "resource": {
        "resourceType": "Encounter",
        "id": "3db133ed-b157-47b9-9214-4efa3ca17b31",
        "meta": {
          "profile": [
            "http://hl7.org/fhir/us/qicore/StructureDefinition/qicore-encounter"
          ]
        },
        "status": "finished",
        "class": {
          "system": "http://terminology.hl7.org/CodeSystem/v3-ActCode",
          "code": "IMP",
          "display": "inpatient encounter",
          "userSelected": true
        },
        "type": [
          {
            "coding": [
              {
                "system": "http://snomed.info/sct",
                "code": "32485007"
              }
            ]
          }
        ],
        "subject": {
          "reference": "Patient/57aa10f3-05ba-4e3c-a318-b1ca265a717c"
        },
        "period": {
          "start": "2025-10-10T09:30:00.000+00:00",
          "end": "2025-10-12T10:30:00.000+00:00"
        },
        "length": {
          "value": 2,
          "unit": "days"
        },
        "diagnosis": [
          {
            "condition": {
              "reference": "Condition/e40f24b0-3e4f-4ab3-ab2d-2c12cd9f6d1c"
            },
            "use": {
              "coding": [
                {
                  "system": "http://terminology.hl7.org/CodeSystem/diagnosis-role",
                  "code": "billing",
                  "display": "Billing"
                }
              ]
            },
            "rank": 1
          }
        ],
        "hospitalization": {
          "dischargeDisposition": {
            "coding": [
              {
                "system": "http://snomed.info/sct",
                "code": "371828006",
                "display": "Patient Expired"
              }
            ]
          }
        }
      },
      "request": {
        "method": "PUT",
        "url": "Encounter/3db133ed-b157-47b9-9214-4efa3ca17b31"
      }
    },
    {
      "fullUrl": "https://madie.cms.gov/Condition/e40f24b0-3e4f-4ab3-ab2d-2c12cd9f6d1c",
      "resource": {
        "resourceType": "Condition",
        "id": "e40f24b0-3e4f-4ab3-ab2d-2c12cd9f6d1c",
        "meta": {
          "profile": [
            "http://hl7.org/fhir/us/qicore/StructureDefinition/qicore-condition"
          ]
        },
        "clinicalStatus": {
          "coding": [
            {
              "system": "http://terminology.hl7.org/CodeSystem/condition-clinical",
              "code": "active"
            }
          ]
        },
        "verificationStatus": {
          "coding": [
            {
              "system": "http://terminology.hl7.org/CodeSystem/condition-ver-status",
              "code": "confirmed"
            }
          ]
        },
        "category": [
          {
            "coding": [
              {
                "system": "http://terminology.hl7.org/CodeSystem/condition-category",
                "code": "encounter-diagnosis",
                "display": "Encounter Diagnosis"
              }
            ]
          }
        ],
        "code": {
          "coding": [
            {
              "system": "http://snomed.info/sct",
              "version": "2020-09",
              "code": "111297002",
              "display": "Nonparalytic stroke (disorder)",
              "userSelected": true
            }
          ]
        },
        "subject": {
          "reference": "Patient/57aa10f3-05ba-4e3c-a318-b1ca265a717c"
        },
        "recordedDate": "2025-07-15T08:00:00.000+00:00"
      },
      "request": {
        "method": "PUT",
        "url": "Condition/e40f24b0-3e4f-4ab3-ab2d-2c12cd9f6d1c"
      }
    },
    {
      "fullUrl": "https://madie.cms.gov/Coverage/74ada943-5753-48c8-8097-4a532eec1021",
      "resource": {
        "resourceType": "Coverage",
        "id": "74ada943-5753-48c8-8097-4a532eec1021",
        "meta": {
          "profile": [
            "http://hl7.org/fhir/us/qicore/StructureDefinition/qicore-coverage"
          ]
        },
        "status": "active",
        "beneficiary": {
          "reference": "Patient/57aa10f3-05ba-4e3c-a318-b1ca265a717c"
        },
        "payor": [
          {
            "reference": "Organization/7097c0b0-0837-45f1-a1b6-eeac9aa9df70"
          }
        ]
      },
      "request": {
        "method": "PUT",
        "url": "Coverage/74ada943-5753-48c8-8097-4a532eec1021"
      }
    },
    {
      "fullUrl": "https://madie.cms.gov/Organization/7097c0b0-0837-45f1-a1b6-eeac9aa9df70",
      "resource": {
        "resourceType": "Organization",
        "id": "7097c0b0-0837-45f1-a1b6-eeac9aa9df70",
        "meta": {
          "profile": [
            "http://hl7.org/fhir/us/qicore/StructureDefinition/qicore-organization"
          ]
        },
        "identifier": [
          {
            "use": "temp",
            "system": "urn:oid:2.16.840.1.113883.4.4",
            "value": "21-3259825"
          }
        ],
        "active": true,
        "type": [
          {
            "coding": [
              {
                "system": "http://terminology.hl7.org/CodeSystem/organization-type",
                "code": "pay",
                "display": "Payer"
              }
            ]
          }
        ],
        "name": "Blue Cross Blue Shield of Texas",
        "telecom": [
          {
            "system": "phone",
            "value": "(+1) 972-766-6900"
          }
        ],
        "address": [
          {
            "use": "billing",
            "type": "postal",
            "line": [
              "P.O. Box 660044"
            ],
            "city": "Dallas",
            "state": "TX",
            "postalCode": "75266-0044",
            "country": "USA"
          }
        ]
      },
      "request": {
        "method": "PUT",
        "url": "Organization/7097c0b0-0837-45f1-a1b6-eeac9aa9df70"
      }
    },
    {
      "fullUrl": "https://madie.cms.gov/MeasureReport/a1b3892c-4762-47db-b705-3e969bbf3206",
      "resource": {
        "resourceType": "MeasureReport",
        "id": "a1b3892c-4762-47db-b705-3e969bbf3206",
        "meta": {
          "profile": [
            "http://hl7.org/fhir/us/cqfmeasures/StructureDefinition/test-case-cqfm"
          ]
        },
        "contained": [
          {
            "resourceType": "Parameters",
            "id": "da8a96b6-66b6-456e-981e-e6de9b2379ec-parameters",
            "parameter": [
              {
                "name": "subject",
                "valueString": "57aa10f3-05ba-4e3c-a318-b1ca265a717c"
              }
            ]
          }
        ],
        "extension": [
          {
            "url": "http://hl7.org/fhir/us/cqfmeasures/StructureDefinition/cqfm-inputParameters",
            "valueReference": {
              "reference": "#da8a96b6-66b6-456e-981e-e6de9b2379ec-parameters"
            }
          },
          {
            "url": "http://hl7.org/fhir/us/cqfmeasures/StructureDefinition/cqfm-testCaseDescription",
            "valueMarkdown": "Patient is 18 with Non-Elective Inpatient Encounter with principal diagnosis of ischemic stroke ends during MP patient expired"
          }
        ],
        "modifierExtension": [
          {
            "url": "http://hl7.org/fhir/us/cqfmeasures/StructureDefinition/cqfm-isTestCase",
            "valueBoolean": true
          }
        ],
        "status": "complete",
        "type": "individual",
        "measure": "https://madie.cms.gov/Measure/DischargedonAntithromboticTherapyFHIR",
        "period": {
          "start": "2025-01-01",
          "end": "2025-12-31"
        },
        "group": [
          {
            "population": [
              {
                "code": {
                  "coding": [
                    {
                      "system": "http://terminology.hl7.org/CodeSystem/measure-population",
                      "code": "initial-population",
                      "display": "Initial Population"
                    }
                  ]
                },
                "count": 1
              },
              {
                "code": {
                  "coding": [
                    {
                      "system": "http://terminology.hl7.org/CodeSystem/measure-population",
                      "code": "denominator",
                      "display": "Denominator"
                    }
                  ]
                },
                "count": 1
              },
              {
                "code": {
                  "coding": [
                    {
                      "system": "http://terminology.hl7.org/CodeSystem/measure-population",
                      "code": "denominator-exclusion",
                      "display": "Denominator Exclusion"
                    }
                  ]
                },
                "count": 1
              },
              {
                "code": {
                  "coding": [
                    {
                      "system": "http://terminology.hl7.org/CodeSystem/measure-population",
                      "code": "numerator",
                      "display": "Numerator"
                    }
                  ]
                },
                "count": 0
              },
              {
                "code": {
                  "coding": [
                    {
                      "system": "http://terminology.hl7.org/CodeSystem/measure-population",
                      "code": "denominator-exception",
                      "display": "Denominator Exception"
                    }
                  ]
                },
                "count": 0
              }
            ]
          }
        ],
        "evaluatedResource": [
          {
            "reference": "Patient/57aa10f3-05ba-4e3c-a318-b1ca265a717c"
          },
          {
            "reference": "Encounter/3db133ed-b157-47b9-9214-4efa3ca17b31"
          },
          {
            "reference": "Condition/e40f24b0-3e4f-4ab3-ab2d-2c12cd9f6d1c"
          },
          {
            "reference": "Coverage/74ada943-5753-48c8-8097-4a532eec1021"
          },
          {
            "reference": "Organization/7097c0b0-0837-45f1-a1b6-eeac9aa9df70"
          }
        ]
      },
      "request": {
        "method": "PUT",
        "url": "MeasureReport/a1b3892c-4762-47db-b705-3e969bbf3206"
      }
    }
  ]
}