{
  "resourceType": "Bundle",
  "id": "363b28a9-e77d-4fee-aaaf-73ebb35bc57c",
  "type": "transaction",
  "entry": [
    {
      "fullUrl": "https://madie.cms.gov/Patient/a2310435-9974-407e-a4b0-f40c9f9d5515",
      "resource": {
        "resourceType": "Patient",
        "id": "a2310435-9974-407e-a4b0-f40c9f9d5515",
        "meta": {
          "profile": [
            "http://hl7.org/fhir/us/qicore/StructureDefinition/qicore-patient"
          ]
        },
        "extension": [
          {
            "url": "http://hl7.org/fhir/us/core/StructureDefinition/us-core-race",
            "extension": [
              {
                "url": "ombCategory",
                "valueCoding": {
                  "system": "urn:oid:2.16.840.1.113883.6.238",
                  "code": "2106-3",
                  "display": "White"
                }
              },
              {
                "url": "text",
                "valueString": "White"
              }
            ]
          },
          {
            "url": "http://hl7.org/fhir/us/core/StructureDefinition/us-core-ethnicity",
            "extension": [
              {
                "url": "ombCategory",
                "valueCoding": {
                  "system": "urn:oid:2.16.840.1.113883.6.238",
                  "code": "2135-2",
                  "display": "Hispanic or Latino"
                }
              },
              {
                "url": "text",
                "valueString": "Hispanic or Latino"
              }
            ]
          }
        ],
        "identifier": [
          {
            "system": "http://hospital.smarthealthit.org",
            "value": "999999999"
          }
        ],
        "name": [
          {
            "family": "Example",
            "given": [
              "Patient"
            ]
          }
        ],
        "gender": "male",
        "birthDate": "1955-01-01"
      },
      "request": {
        "method": "PUT",
        "url": "Patient/a2310435-9974-407e-a4b0-f40c9f9d5515"
      }
    },
    {
      "fullUrl": "https://madie.cms.gov/Encounter/25ec7104-107d-4b1b-9d44-eb6c3e1acc7a",
      "resource": {
        "resourceType": "Encounter",
        "id": "25ec7104-107d-4b1b-9d44-eb6c3e1acc7a",
        "meta": {
          "profile": [
            "http://hl7.org/fhir/us/qicore/StructureDefinition/qicore-encounter"
          ]
        },
        "status": "finished",
        "class": {
          "system": "http://terminology.hl7.org/CodeSystem/v3-ActCode",
          "code": "IMP",
          "display": "inpatient encounter"
        },
        "type": [
          {
            "coding": [
              {
                "system": "http://snomed.info/sct",
                "code": "183452005"
              }
            ]
          }
        ],
        "subject": {
          "reference": "Patient/a2310435-9974-407e-a4b0-f40c9f9d5515"
        },
        "period": {
          "start": "2025-04-07T08:00:00.000Z",
          "end": "2025-04-11T08:15:00.000Z"
        }
      },
      "request": {
        "method": "PUT",
        "url": "Encounter/25ec7104-107d-4b1b-9d44-eb6c3e1acc7a"
      }
    },
    {
      "fullUrl": "https://madie.cms.gov/MedicationAdministration/dbb63fb8-4c0d-4e29-9d08-ed864a9deca2",
      "resource": {
        "resourceType": "MedicationAdministration",
        "id": "dbb63fb8-4c0d-4e29-9d08-ed864a9deca2",
        "meta": {
          "profile": [
            "http://hl7.org/fhir/us/qicore/StructureDefinition/qicore-medicationadministration"
          ]
        },
        "status": "completed",
        "medicationCodeableConcept": {
          "coding": [
            {
              "system": "http://www.nlm.nih.gov/research/umls/rxnorm",
              "code": "1361493",
              "display": "glimepiride 6 MG Oral Tablet",
              "userSelected": true
            }
          ]
        },
        "subject": {
          "reference": "Patient/a2310435-9974-407e-a4b0-f40c9f9d5515"
        },
        "effectivePeriod": {
          "start": "2025-04-08T06:00:00+00:00",
          "end": "2025-04-08T06:30:00+00:00"
        }
      },
      "request": {
        "method": "PUT",
        "url": "MedicationAdministration/dbb63fb8-4c0d-4e29-9d08-ed864a9deca2"
      }
    },
    {
      "fullUrl": "https://madie.cms.gov/MeasureReport/da84ff65-7f13-460a-9342-47f2225b2f80",
      "resource": {
        "resourceType": "MeasureReport",
        "id": "da84ff65-7f13-460a-9342-47f2225b2f80",
        "meta": {
          "profile": [
            "http://hl7.org/fhir/us/cqfmeasures/StructureDefinition/test-case-cqfm"
          ]
        },
        "contained": [
          {
            "resourceType": "Parameters",
            "id": "142e8562-48f0-4cd1-ae0e-4c3dd539ed29-parameters",
            "parameter": [
              {
                "name": "subject",
                "valueString": "a2310435-9974-407e-a4b0-f40c9f9d5515"
              }
            ]
          }
        ],
        "extension": [
          {
            "url": "http://hl7.org/fhir/us/cqfmeasures/StructureDefinition/cqfm-inputParameters",
            "valueReference": {
              "reference": "#142e8562-48f0-4cd1-ae0e-4c3dd539ed29-parameters"
            }
          },
          {
            "url": "http://hl7.org/fhir/us/cqfmeasures/StructureDefinition/cqfm-testCaseDescription",
            "valueMarkdown": "IP encounter where hypoglycemic medication was administered. Meets IPP/Denom"
          }
        ],
        "modifierExtension": [
          {
            "url": "http://hl7.org/fhir/us/cqfmeasures/StructureDefinition/cqfm-isTestCase",
            "valueBoolean": true
          }
        ],
        "status": "complete",
        "type": "individual",
        "measure": "https://madie.cms.gov/Measure/HospitalHarmHyperglycemiainHospitalizedPatientsFHIR",
        "period": {
          "start": "2025-01-01",
          "end": "2025-12-31"
        },
        "group": [
          {
            "population": [
              {
                "code": {
                  "coding": [
                    {
                      "system": "http://terminology.hl7.org/CodeSystem/measure-population",
                      "code": "initial-population",
                      "display": "Initial Population"
                    }
                  ]
                },
                "count": 1
              },
              {
                "code": {
                  "coding": [
                    {
                      "system": "http://terminology.hl7.org/CodeSystem/measure-population",
                      "code": "denominator",
                      "display": "Denominator"
                    }
                  ]
                },
                "count": 1
              },
              {
                "code": {
                  "coding": [
                    {
                      "system": "http://terminology.hl7.org/CodeSystem/measure-population",
                      "code": "denominator-exclusion",
                      "display": "Denominator Exclusion"
                    }
                  ]
                },
                "count": 0
              },
              {
                "code": {
                  "coding": [
                    {
                      "system": "http://terminology.hl7.org/CodeSystem/measure-population",
                      "code": "numerator",
                      "display": "Numerator"
                    }
                  ]
                },
                "count": 0
              },
              {
                "code": {
                  "coding": [
                    {
                      "system": "http://terminology.hl7.org/CodeSystem/measure-population",
                      "code": "denominator-observation",
                      "display": "DenominatorObservation"
                    }
                  ]
                },
                "count": 3
              }
            ]
          }
        ],
        "evaluatedResource": [
          {
            "reference": "Patient/a2310435-9974-407e-a4b0-f40c9f9d5515"
          },
          {
            "reference": "Encounter/25ec7104-107d-4b1b-9d44-eb6c3e1acc7a"
          },
          {
            "reference": "MedicationAdministration/dbb63fb8-4c0d-4e29-9d08-ed864a9deca2"
          }
        ]
      },
      "request": {
        "method": "PUT",
        "url": "MeasureReport/da84ff65-7f13-460a-9342-47f2225b2f80"
      }
    }
  ]
}