{
  "resourceType": "Bundle",
  "id": "DENEXPass-HospiceServicesEndOnDec31OfMP",
  "type": "transaction",
  "entry": [
    {
      "fullUrl": "https://madie.cms.gov/Patient/9289eb3b-db40-4334-b668-39812fca7c4e",
      "resource": {
        "resourceType": "Patient",
        "id": "9289eb3b-db40-4334-b668-39812fca7c4e",
        "meta": {
          "profile": [
            "http://hl7.org/fhir/us/qicore/StructureDefinition/qicore-patient"
          ]
        },
        "extension": [
          {
            "url": "http://hl7.org/fhir/us/core/StructureDefinition/us-core-race",
            "extension": [
              {
                "url": "ombCategory",
                "valueCoding": {
                  "system": "urn:oid:2.16.840.1.113883.6.238",
                  "code": "2028-9",
                  "display": "Asian"
                }
              },
              {
                "url": "text",
                "valueString": "Asian"
              }
            ]
          },
          {
            "url": "http://hl7.org/fhir/us/core/StructureDefinition/us-core-ethnicity",
            "extension": [
              {
                "url": "ombCategory",
                "valueCoding": {
                  "system": "urn:oid:2.16.840.1.113883.6.238",
                  "code": "2135-2",
                  "display": "Hispanic or Latino"
                }
              },
              {
                "url": "text",
                "valueString": "Hispanic or Latino"
              }
            ]
          }
        ],
        "identifier": [
          {
            "system": "http://hospital.smarthealthit.org",
            "value": "999999995"
          }
        ],
        "name": [
          {
            "family": "Bertha",
            "given": [
              "Betty"
            ]
          }
        ],
        "gender": "female",
        "birthDate": "2005-01-01"
      },
      "request": {
        "method": "PUT",
        "url": "Patient/9289eb3b-db40-4334-b668-39812fca7c4e"
      }
    },
    {
      "fullUrl": "https://madie.cms.gov/Encounter/220da0e5-698f-4737-860e-1b6536fcb96b",
      "resource": {
        "resourceType": "Encounter",
        "id": "220da0e5-698f-4737-860e-1b6536fcb96b",
        "meta": {
          "profile": [
            "http://hl7.org/fhir/us/qicore/StructureDefinition/qicore-encounter"
          ]
        },
        "status": "finished",
        "class": {
          "system": "http://terminology.hl7.org/CodeSystem/v3-ActCode",
          "code": "AMB",
          "display": "ambulatory"
        },
        "type": [
          {
            "coding": [
              {
                "system": "http://www.ada.org/cdt",
                "code": "D0120",
                "display": "periodic oral evaluation - established patient"
              }
            ]
          }
        ],
        "subject": {
          "reference": "Patient/9289eb3b-db40-4334-b668-39812fca7c4e"
        },
        "period": {
          "start": "2025-01-01T00:00:00.000Z",
          "end": "2025-01-01T01:15:00.000Z"
        }
      },
      "request": {
        "method": "PUT",
        "url": "Encounter/220da0e5-698f-4737-860e-1b6536fcb96b"
      }
    },
    {
      "fullUrl": "https://madie.cms.gov/Encounter/220da0e5-698f-4737-860e-1b6536fcb96b.1",
      "resource": {
        "resourceType": "Encounter",
        "id": "220da0e5-698f-4737-860e-1b6536fcb96b.1",
        "meta": {
          "profile": [
            "http://hl7.org/fhir/us/qicore/StructureDefinition/qicore-encounter"
          ]
        },
        "status": "finished",
        "class": {
          "system": "http://terminology.hl7.org/CodeSystem/v3-ActCode",
          "code": "AMB",
          "display": "ambulatory"
        },
        "type": [
          {
            "coding": [
              {
                "system": "http://snomed.info/sct",
                "code": "183452005",
                "display": "Emergency hospital admission (procedure)"
              }
            ]
          }
        ],
        "subject": {
          "reference": "Patient/9289eb3b-db40-4334-b668-39812fca7c4e"
        },
        "period": {
          "start": "2025-12-31T00:00:00.000Z",
          "end": "2025-12-31T01:00:00.000Z"
        },
        "hospitalization": {
          "dischargeDisposition": {
            "coding": [
              {
                "system": "http://snomed.info/sct",
                "code": "428371000124100",
                "display": "Discharge to healthcare facility for hospice care (procedure)"
              }
            ]
          }
        }
      },
      "request": {
        "method": "PUT",
        "url": "Encounter/220da0e5-698f-4737-860e-1b6536fcb96b.1"
      }
    },
    {
      "fullUrl": "https://madie.cms.gov/MeasureReport/21678f08-01f3-4f25-8e0c-b1897faea607",
      "resource": {
        "resourceType": "MeasureReport",
        "id": "21678f08-01f3-4f25-8e0c-b1897faea607",
        "meta": {
          "profile": [
            "http://hl7.org/fhir/us/cqfmeasures/StructureDefinition/test-case-cqfm"
          ]
        },
        "contained": [
          {
            "resourceType": "Parameters",
            "id": "0a58a729-97d5-4be3-a7eb-bb364b22a27d-parameters",
            "parameter": [
              {
                "name": "subject",
                "valueString": "9289eb3b-db40-4334-b668-39812fca7c4e"
              }
            ]
          }
        ],
        "extension": [
          {
            "url": "http://hl7.org/fhir/us/cqfmeasures/StructureDefinition/cqfm-inputParameters",
            "valueReference": {
              "reference": "#0a58a729-97d5-4be3-a7eb-bb364b22a27d-parameters"
            }
          },
          {
            "url": "http://hl7.org/fhir/us/cqfmeasures/StructureDefinition/cqfm-testCaseDescription",
            "valueMarkdown": "Patient 20yo w/ an Oral Evaluation Encounter 1/1 of the MP & Hospice Encounter that ends on 12/31 of the MP."
          }
        ],
        "modifierExtension": [
          {
            "url": "http://hl7.org/fhir/us/cqfmeasures/StructureDefinition/cqfm-isTestCase",
            "valueBoolean": true
          }
        ],
        "status": "complete",
        "type": "individual",
        "measure": "https://madie.cms.gov/Measure/PrimaryCariesPreventionasOfferedbyDentistsFHIR",
        "period": {
          "start": "2025-01-01",
          "end": "2025-12-31"
        },
        "group": [
          {
            "population": [
              {
                "code": {
                  "coding": [
                    {
                      "system": "http://terminology.hl7.org/CodeSystem/measure-population",
                      "code": "initial-population",
                      "display": "Initial Population"
                    }
                  ]
                },
                "count": 1
              },
              {
                "code": {
                  "coding": [
                    {
                      "system": "http://terminology.hl7.org/CodeSystem/measure-population",
                      "code": "denominator",
                      "display": "Denominator"
                    }
                  ]
                },
                "count": 1
              },
              {
                "code": {
                  "coding": [
                    {
                      "system": "http://terminology.hl7.org/CodeSystem/measure-population",
                      "code": "denominator-exclusion",
                      "display": "Denominator Exclusion"
                    }
                  ]
                },
                "count": 1
              },
              {
                "code": {
                  "coding": [
                    {
                      "system": "http://terminology.hl7.org/CodeSystem/measure-population",
                      "code": "numerator",
                      "display": "Numerator"
                    }
                  ]
                },
                "count": 0
              }
            ]
          }
        ],
        "evaluatedResource": [
          {
            "reference": "Patient/9289eb3b-db40-4334-b668-39812fca7c4e"
          },
          {
            "reference": "Encounter/220da0e5-698f-4737-860e-1b6536fcb96b"
          },
          {
            "reference": "Encounter/220da0e5-698f-4737-860e-1b6536fcb96b.1"
          }
        ]
      },
      "request": {
        "method": "PUT",
        "url": "MeasureReport/21678f08-01f3-4f25-8e0c-b1897faea607"
      }
    }
  ]
}