{
  "resourceType": "Bundle",
  "id": "6129131302c62a011f2e581f",
  "type": "transaction",
  "entry": [
    {
      "fullUrl": "https://madie.cms.gov/Patient/33bf5305-1d34-4fe2-b261-813bbcc15ea6",
      "resource": {
        "resourceType": "Patient",
        "id": "33bf5305-1d34-4fe2-b261-813bbcc15ea6",
        "meta": {
          "profile": [
            "http://hl7.org/fhir/us/qicore/StructureDefinition/qicore-patient"
          ]
        },
        "text": {
          "status": "generated",
          "div": "<div xmlns=\"http://www.w3.org/1999/xhtml\"><div class=\"hapiHeaderText\">PharmContraBeforeEncStart_NoEDNoObsBFEnc <b>DENEXCEPFAIL </b></div><table class=\"hapiPropertyTable\"><tbody><tr><td>Identifier</td><td>628c16cb856e01c2b8ceb8d682e71bf77cc3847841c023a61cc3ea0e750edfca</td></tr><tr><td>Date of birth</td><td><span>21 August 1994</span></td></tr></tbody></table></div>"
        },
        "extension": [
          {
            "url": "http://hl7.org/fhir/us/core/StructureDefinition/us-core-race",
            "extension": [
              {
                "url": "ombCategory",
                "valueCoding": {
                  "system": "urn:oid:2.16.840.1.113883.6.238",
                  "code": "1002-5",
                  "display": "American Indian or Alaska Native",
                  "userSelected": true
                }
              },
              {
                "url": "text",
                "valueString": "American Indian or Alaska Native"
              }
            ]
          },
          {
            "url": "http://hl7.org/fhir/us/core/StructureDefinition/us-core-ethnicity",
            "extension": [
              {
                "url": "ombCategory",
                "valueCoding": {
                  "system": "urn:oid:2.16.840.1.113883.6.238",
                  "code": "2135-2",
                  "display": "Hispanic or Latino",
                  "userSelected": true
                }
              },
              {
                "url": "text",
                "valueString": "Hispanic or Latino"
              }
            ]
          }
        ],
        "identifier": [
          {
            "type": {
              "coding": [
                {
                  "system": "http://terminology.hl7.org/CodeSystem/v2-0203",
                  "code": "MR"
                }
              ]
            },
            "system": "https://bonnie-fhir.healthit.gov/",
            "value": "6129131302c62a011f2e581f"
          }
        ],
        "active": true,
        "name": [
          {
            "use": "usual",
            "family": "DENEXCEPFail",
            "given": [
              "PharmContraBeforeEncStart_NoEDNoObsBFEnc"
            ]
          }
        ],
        "gender": "male",
        "birthDate": "1994-08-21"
      },
      "request": {
        "method": "PUT",
        "url": "Patient/33bf5305-1d34-4fe2-b261-813bbcc15ea6"
      }
    },
    {
      "fullUrl": "https://madie.cms.gov/Encounter/e56bff51-7598-4527-83bf-92b6083e0eee",
      "resource": {
        "resourceType": "Encounter",
        "id": "e56bff51-7598-4527-83bf-92b6083e0eee",
        "meta": {
          "profile": [
            "http://hl7.org/fhir/us/qicore/StructureDefinition/qicore-encounter"
          ]
        },
        "status": "finished",
        "class": {
          "system": "http://terminology.hl7.org/CodeSystem/v3-ActCode",
          "code": "IMP",
          "display": "inpatient encounter",
          "userSelected": true
        },
        "type": [
          {
            "coding": [
              {
                "system": "http://snomed.info/sct",
                "code": "32485007"
              }
            ]
          }
        ],
        "subject": {
          "reference": "Patient/33bf5305-1d34-4fe2-b261-813bbcc15ea6"
        },
        "period": {
          "start": "2025-10-10T09:30:00.000+00:00",
          "end": "2025-10-12T10:30:00.000+00:00"
        },
        "length": {
          "value": 2,
          "unit": "days"
        },
        "diagnosis": [
          {
            "condition": {
              "reference": "Condition/aad0832a-5f25-484c-9d4b-1b85a2827296"
            },
            "use": {
              "coding": [
                {
                  "system": "http://terminology.hl7.org/CodeSystem/diagnosis-role",
                  "code": "billing",
                  "display": "Billing"
                }
              ]
            },
            "rank": 1
          }
        ]
      },
      "request": {
        "method": "PUT",
        "url": "Encounter/e56bff51-7598-4527-83bf-92b6083e0eee"
      }
    },
    {
      "fullUrl": "https://madie.cms.gov/MedicationRequest/a28f2139-356c-40e9-8bb5-7dcd63e9c6a5",
      "resource": {
        "resourceType": "MedicationRequest",
        "id": "a28f2139-356c-40e9-8bb5-7dcd63e9c6a5",
        "meta": {
          "profile": [
            "http://hl7.org/fhir/us/qicore/StructureDefinition/qicore-medicationrequest"
          ]
        },
        "status": "active",
        "intent": "filler-order",
        "medicationCodeableConcept": {
          "coding": [
            {
              "system": "http://www.nlm.nih.gov/research/umls/rxnorm",
              "code": "1116635"
            }
          ]
        },
        "subject": {
          "reference": "Patient/33bf5305-1d34-4fe2-b261-813bbcc15ea6"
        },
        "authoredOn": "2025-10-10T09:29:00.000+00:00",
        "requester": {
          "reference": "Practitioner/example"
        }
      },
      "request": {
        "method": "PUT",
        "url": "MedicationRequest/a28f2139-356c-40e9-8bb5-7dcd63e9c6a5"
      }
    },
    {
      "fullUrl": "https://madie.cms.gov/Condition/aad0832a-5f25-484c-9d4b-1b85a2827296",
      "resource": {
        "resourceType": "Condition",
        "id": "aad0832a-5f25-484c-9d4b-1b85a2827296",
        "meta": {
          "profile": [
            "http://hl7.org/fhir/us/qicore/StructureDefinition/qicore-condition"
          ]
        },
        "clinicalStatus": {
          "coding": [
            {
              "system": "http://terminology.hl7.org/CodeSystem/condition-clinical",
              "code": "active"
            }
          ]
        },
        "verificationStatus": {
          "coding": [
            {
              "system": "http://terminology.hl7.org/CodeSystem/condition-ver-status",
              "code": "confirmed"
            }
          ]
        },
        "category": [
          {
            "coding": [
              {
                "system": "http://terminology.hl7.org/CodeSystem/condition-category",
                "code": "encounter-diagnosis",
                "display": "Encounter Diagnosis"
              }
            ]
          }
        ],
        "code": {
          "coding": [
            {
              "system": "http://snomed.info/sct",
              "version": "2020-09",
              "code": "111297002",
              "display": "Nonparalytic stroke (disorder)",
              "userSelected": true
            }
          ]
        },
        "subject": {
          "reference": "Patient/33bf5305-1d34-4fe2-b261-813bbcc15ea6"
        },
        "recordedDate": "2025-07-13T08:00:00.000+00:00"
      },
      "request": {
        "method": "PUT",
        "url": "Condition/aad0832a-5f25-484c-9d4b-1b85a2827296"
      }
    },
    {
      "fullUrl": "https://madie.cms.gov/Coverage/755fc461-c41b-456a-887a-934f854e9b19",
      "resource": {
        "resourceType": "Coverage",
        "id": "755fc461-c41b-456a-887a-934f854e9b19",
        "meta": {
          "profile": [
            "http://hl7.org/fhir/us/qicore/StructureDefinition/qicore-coverage"
          ]
        },
        "status": "active",
        "beneficiary": {
          "reference": "Patient/33bf5305-1d34-4fe2-b261-813bbcc15ea6"
        },
        "payor": [
          {
            "reference": "Organization/7425d6ae-c6f8-42ee-b16c-276894eb3ba9"
          }
        ]
      },
      "request": {
        "method": "PUT",
        "url": "Coverage/755fc461-c41b-456a-887a-934f854e9b19"
      }
    },
    {
      "fullUrl": "https://madie.cms.gov/Organization/7425d6ae-c6f8-42ee-b16c-276894eb3ba9",
      "resource": {
        "resourceType": "Organization",
        "id": "7425d6ae-c6f8-42ee-b16c-276894eb3ba9",
        "meta": {
          "profile": [
            "http://hl7.org/fhir/us/qicore/StructureDefinition/qicore-organization"
          ]
        },
        "identifier": [
          {
            "use": "temp",
            "system": "urn:oid:2.16.840.1.113883.4.4",
            "value": "21-3259825"
          }
        ],
        "active": true,
        "type": [
          {
            "coding": [
              {
                "system": "http://terminology.hl7.org/CodeSystem/organization-type",
                "code": "pay",
                "display": "Payer"
              }
            ]
          }
        ],
        "name": "Blue Cross Blue Shield of Texas",
        "telecom": [
          {
            "system": "phone",
            "value": "(+1) 972-766-6900"
          }
        ],
        "address": [
          {
            "use": "billing",
            "type": "postal",
            "line": [
              "P.O. Box 660044"
            ],
            "city": "Dallas",
            "state": "TX",
            "postalCode": "75266-0044",
            "country": "USA"
          }
        ]
      },
      "request": {
        "method": "PUT",
        "url": "Organization/7425d6ae-c6f8-42ee-b16c-276894eb3ba9"
      }
    },
    {
      "fullUrl": "https://madie.cms.gov/MeasureReport/0a95b525-e6a8-4a93-a0d2-8955931f31fe",
      "resource": {
        "resourceType": "MeasureReport",
        "id": "0a95b525-e6a8-4a93-a0d2-8955931f31fe",
        "meta": {
          "profile": [
            "http://hl7.org/fhir/us/cqfmeasures/StructureDefinition/test-case-cqfm"
          ]
        },
        "contained": [
          {
            "resourceType": "Parameters",
            "id": "393941f5-84f3-4fd2-8e33-3a8f4a956ec6-parameters",
            "parameter": [
              {
                "name": "subject",
                "valueString": "33bf5305-1d34-4fe2-b261-813bbcc15ea6"
              }
            ]
          }
        ],
        "extension": [
          {
            "url": "http://hl7.org/fhir/us/cqfmeasures/StructureDefinition/cqfm-inputParameters",
            "valueReference": {
              "reference": "#393941f5-84f3-4fd2-8e33-3a8f4a956ec6-parameters"
            }
          },
          {
            "url": "http://hl7.org/fhir/us/cqfmeasures/StructureDefinition/cqfm-testCaseDescription",
            "valueMarkdown": "Patient receives Ticagrelor before inpatient encounter. No ED. No Observation. Testing medication data type for HospitalizationWithObservation function. See CMO test cases since timing is the same."
          }
        ],
        "modifierExtension": [
          {
            "url": "http://hl7.org/fhir/us/cqfmeasures/StructureDefinition/cqfm-isTestCase",
            "valueBoolean": true
          }
        ],
        "status": "complete",
        "type": "individual",
        "measure": "https://madie.cms.gov/Measure/DischargedonAntithromboticTherapyFHIR",
        "period": {
          "start": "2025-01-01",
          "end": "2025-12-31"
        },
        "group": [
          {
            "population": [
              {
                "code": {
                  "coding": [
                    {
                      "system": "http://terminology.hl7.org/CodeSystem/measure-population",
                      "code": "initial-population",
                      "display": "Initial Population"
                    }
                  ]
                },
                "count": 1
              },
              {
                "code": {
                  "coding": [
                    {
                      "system": "http://terminology.hl7.org/CodeSystem/measure-population",
                      "code": "denominator",
                      "display": "Denominator"
                    }
                  ]
                },
                "count": 1
              },
              {
                "code": {
                  "coding": [
                    {
                      "system": "http://terminology.hl7.org/CodeSystem/measure-population",
                      "code": "denominator-exclusion",
                      "display": "Denominator Exclusion"
                    }
                  ]
                },
                "count": 0
              },
              {
                "code": {
                  "coding": [
                    {
                      "system": "http://terminology.hl7.org/CodeSystem/measure-population",
                      "code": "numerator",
                      "display": "Numerator"
                    }
                  ]
                },
                "count": 0
              },
              {
                "code": {
                  "coding": [
                    {
                      "system": "http://terminology.hl7.org/CodeSystem/measure-population",
                      "code": "denominator-exception",
                      "display": "Denominator Exception"
                    }
                  ]
                },
                "count": 0
              }
            ]
          }
        ],
        "evaluatedResource": [
          {
            "reference": "Patient/33bf5305-1d34-4fe2-b261-813bbcc15ea6"
          },
          {
            "reference": "Encounter/e56bff51-7598-4527-83bf-92b6083e0eee"
          },
          {
            "reference": "MedicationRequest/a28f2139-356c-40e9-8bb5-7dcd63e9c6a5"
          },
          {
            "reference": "Condition/aad0832a-5f25-484c-9d4b-1b85a2827296"
          },
          {
            "reference": "Coverage/755fc461-c41b-456a-887a-934f854e9b19"
          },
          {
            "reference": "Organization/7425d6ae-c6f8-42ee-b16c-276894eb3ba9"
          }
        ]
      },
      "request": {
        "method": "PUT",
        "url": "MeasureReport/0a95b525-e6a8-4a93-a0d2-8955931f31fe"
      }
    }
  ]
}