{
  "resourceType": "Bundle",
  "id": "63ec0965ccb3770120fe9ab4",
  "type": "transaction",
  "entry": [
    {
      "fullUrl": "https://madie.cms.gov/Patient/03094c7f-fb74-4f51-8ee5-a5e4a2411a9f",
      "resource": {
        "resourceType": "Patient",
        "id": "03094c7f-fb74-4f51-8ee5-a5e4a2411a9f",
        "meta": {
          "profile": [
            "http://hl7.org/fhir/us/qicore/StructureDefinition/qicore-patient"
          ]
        },
        "text": {
          "status": "generated",
          "div": "<div xmlns=\"http://www.w3.org/1999/xhtml\"><div class=\"hapiHeaderText\">PlateletRRHR <b>COMBO1 </b></div><table class=\"hapiPropertyTable\"><tbody><tr><td>Identifier</td><td>3fdea26b1d172050afffe1c0ff7bd899faa0bd0df7d367f433ae26111f27549c</td></tr><tr><td>Date of birth</td><td><span>15 June 1956</span></td></tr></tbody></table></div>"
        },
        "extension": [
          {
            "url": "http://hl7.org/fhir/us/core/StructureDefinition/us-core-race",
            "extension": [
              {
                "url": "ombCategory",
                "valueCoding": {
                  "system": "urn:oid:2.16.840.1.113883.6.238",
                  "code": "1002-5",
                  "display": "American Indian or Alaska Native",
                  "userSelected": true
                }
              },
              {
                "url": "text",
                "valueString": "American Indian or Alaska Native"
              }
            ]
          },
          {
            "url": "http://hl7.org/fhir/us/core/StructureDefinition/us-core-ethnicity",
            "extension": [
              {
                "url": "ombCategory",
                "valueCoding": {
                  "system": "urn:oid:2.16.840.1.113883.6.238",
                  "code": "2186-5",
                  "display": "Not Hispanic or Latino",
                  "userSelected": true
                }
              },
              {
                "url": "text",
                "valueString": "Not Hispanic or Latino"
              }
            ]
          }
        ],
        "identifier": [
          {
            "type": {
              "coding": [
                {
                  "system": "http://terminology.hl7.org/CodeSystem/v2-0203",
                  "code": "MR"
                }
              ]
            },
            "system": "https://bonnie-fhir.healthit.gov/",
            "value": "63ec0965ccb3770120fe9ab4"
          }
        ],
        "active": true,
        "name": [
          {
            "use": "usual",
            "family": "PlateletsHeartRateSystolicBPPass",
            "given": [
              "OneMinuteAfterAdmission"
            ]
          }
        ],
        "gender": "male",
        "birthDate": "1956-06-15"
      },
      "request": {
        "method": "PUT",
        "url": "Patient/03094c7f-fb74-4f51-8ee5-a5e4a2411a9f"
      }
    },
    {
      "fullUrl": "https://madie.cms.gov/Encounter/4eee26ae-e8ca-4a6f-abac-95e2ba79e704",
      "resource": {
        "resourceType": "Encounter",
        "id": "4eee26ae-e8ca-4a6f-abac-95e2ba79e704",
        "meta": {
          "profile": [
            "http://hl7.org/fhir/us/qicore/StructureDefinition/qicore-encounter"
          ]
        },
        "status": "finished",
        "class": {
          "system": "http://terminology.hl7.org/CodeSystem/v3-ActCode",
          "code": "NONAC",
          "display": "nonacute encounter",
          "userSelected": true
        },
        "type": [
          {
            "coding": [
              {
                "system": "http://snomed.info/sct",
                "code": "183452005",
                "display": "Emergency hospital admission (procedure)"
              }
            ]
          }
        ],
        "subject": {
          "reference": "Patient/03094c7f-fb74-4f51-8ee5-a5e4a2411a9f"
        },
        "period": {
          "start": "2025-07-01T08:00:00.000+00:00",
          "end": "2025-07-03T08:15:00.000+00:00"
        },
        "length": {
          "value": 3,
          "unit": "days"
        }
      },
      "request": {
        "method": "PUT",
        "url": "Encounter/4eee26ae-e8ca-4a6f-abac-95e2ba79e704"
      }
    },
    {
      "fullUrl": "https://madie.cms.gov/Coverage/22371dc5-4ded-4b0b-9e0c-dd256682eda4",
      "resource": {
        "resourceType": "Coverage",
        "id": "22371dc5-4ded-4b0b-9e0c-dd256682eda4",
        "meta": {
          "profile": [
            "http://hl7.org/fhir/us/qicore/StructureDefinition/qicore-coverage"
          ]
        },
        "status": "active",
        "type": {
          "coding": [
            {
              "system": "https://nahdo.org/sopt",
              "version": "1.0.1",
              "code": "1",
              "display": "Medicare payer",
              "userSelected": true
            }
          ]
        },
        "beneficiary": {
          "reference": "Patient/03094c7f-fb74-4f51-8ee5-a5e4a2411a9f"
        },
        "payor": [
          {
            "reference": "Organization/bfb93bb1-f1ea-47ec-ae7b-75ae2b7d06d6"
          }
        ]
      },
      "request": {
        "method": "PUT",
        "url": "Coverage/22371dc5-4ded-4b0b-9e0c-dd256682eda4"
      }
    },
    {
      "fullUrl": "https://madie.cms.gov/Observation/5cbe5ea9-c784-470f-9ae4-28b4f6a7f6e2",
      "resource": {
        "resourceType": "Observation",
        "id": "5cbe5ea9-c784-470f-9ae4-28b4f6a7f6e2",
        "meta": {
          "profile": [
            "http://hl7.org/fhir/us/core/StructureDefinition/us-core-observation-lab"
          ]
        },
        "status": "final",
        "category": [
          {
            "coding": [
              {
                "system": "http://terminology.hl7.org/CodeSystem/observation-category",
                "code": "laboratory",
                "display": "Laboratory",
                "userSelected": true
              }
            ]
          }
        ],
        "code": {
          "coding": [
            {
              "system": "http://loinc.org",
              "code": "13056-7",
              "display": "Platelets [#/volume] in Plasma by Automated count"
            }
          ]
        },
        "subject": {
          "reference": "Patient/03094c7f-fb74-4f51-8ee5-a5e4a2411a9f"
        },
        "effectiveDateTime": "2025-07-01T08:01:00.000+00:00",
        "issued": "2025-07-01T08:01:01.000+00:00",
        "valueQuantity": {
          "value": 200000,
          "unit": "uL",
          "system": "http://unitsofmeasure.org",
          "code": "uL"
        }
      },
      "request": {
        "method": "PUT",
        "url": "Observation/5cbe5ea9-c784-470f-9ae4-28b4f6a7f6e2"
      }
    },
    {
      "fullUrl": "https://madie.cms.gov/Observation/7bee29cc-34be-4e2c-9e1f-682c71848d72",
      "resource": {
        "resourceType": "Observation",
        "id": "7bee29cc-34be-4e2c-9e1f-682c71848d72",
        "meta": {
          "profile": [
            "http://hl7.org/fhir/StructureDefinition/heartrate"
          ]
        },
        "status": "amended",
        "category": [
          {
            "coding": [
              {
                "system": "http://terminology.hl7.org/CodeSystem/observation-category",
                "code": "vital-signs",
                "display": "Vital Signs",
                "userSelected": true
              }
            ]
          }
        ],
        "code": {
          "coding": [
            {
              "system": "http://loinc.org",
              "code": "8867-4",
              "display": "Heart rate"
            }
          ]
        },
        "subject": {
          "reference": "Patient/03094c7f-fb74-4f51-8ee5-a5e4a2411a9f"
        },
        "effectiveDateTime": "2025-07-01T08:01:00.000+00:00",
        "issued": "2025-07-01T08:01:00.000+00:00",
        "valueQuantity": {
          "value": 100,
          "unit": "/min",
          "system": "http://unitsofmeasure.org",
          "code": "/min"
        }
      },
      "request": {
        "method": "PUT",
        "url": "Observation/7bee29cc-34be-4e2c-9e1f-682c71848d72"
      }
    },
    {
      "fullUrl": "https://madie.cms.gov/Observation/6e7576d9-13ba-4e22-8b20-55baf9f3b777",
      "resource": {
        "resourceType": "Observation",
        "id": "6e7576d9-13ba-4e22-8b20-55baf9f3b777",
        "meta": {
          "profile": [
            "http://hl7.org/fhir/StructureDefinition/bp"
          ]
        },
        "status": "final",
        "category": [
          {
            "coding": [
              {
                "system": "http://terminology.hl7.org/CodeSystem/observation-category",
                "code": "vital-signs",
                "display": "Vital Signs"
              }
            ],
            "text": "Vital Signs"
          }
        ],
        "code": {
          "coding": [
            {
              "system": "http://loinc.org",
              "code": "85354-9",
              "display": "Blood pressure panel"
            }
          ]
        },
        "subject": {
          "reference": "Patient/03094c7f-fb74-4f51-8ee5-a5e4a2411a9f"
        },
        "effectiveDateTime": "2025-07-01T08:01:00.000+00:00",
        "component": [
          {
            "code": {
              "coding": [
                {
                  "system": "http://loinc.org",
                  "code": "8480-6",
                  "display": "Systolic blood pressure"
                }
              ]
            },
            "valueQuantity": {
              "value": 131,
              "unit": "mmHg",
              "system": "http://unitsofmeasure.org",
              "code": "mm[Hg]"
            }
          },
          {
            "code": {
              "coding": [
                {
                  "system": "http://loinc.org",
                  "code": "8462-4",
                  "display": "Diastolic blood pressure"
                }
              ]
            },
            "valueQuantity": {
              "value": 80,
              "unit": "mmHg",
              "system": "http://unitsofmeasure.org",
              "code": "mm[Hg]"
            }
          }
        ]
      },
      "request": {
        "method": "PUT",
        "url": "Observation/6e7576d9-13ba-4e22-8b20-55baf9f3b777"
      }
    },
    {
      "fullUrl": "https://madie.cms.gov/Organization/bfb93bb1-f1ea-47ec-ae7b-75ae2b7d06d6",
      "resource": {
        "resourceType": "Organization",
        "id": "bfb93bb1-f1ea-47ec-ae7b-75ae2b7d06d6",
        "meta": {
          "profile": [
            "http://hl7.org/fhir/us/qicore/StructureDefinition/qicore-organization"
          ]
        },
        "identifier": [
          {
            "use": "temp",
            "system": "urn:oid:2.16.840.1.113883.4.4",
            "value": "21-3259825"
          }
        ],
        "active": true,
        "type": [
          {
            "coding": [
              {
                "system": "http://terminology.hl7.org/CodeSystem/organization-type",
                "code": "pay",
                "display": "Payer"
              }
            ]
          }
        ],
        "name": "Blue Cross Blue Shield of Texas",
        "telecom": [
          {
            "system": "phone",
            "value": "(+1) 972-766-6900"
          }
        ],
        "address": [
          {
            "use": "billing",
            "type": "postal",
            "line": [
              "P.O. Box 660044"
            ],
            "city": "Dallas",
            "state": "TX",
            "postalCode": "75266-0044",
            "country": "USA"
          }
        ]
      },
      "request": {
        "method": "PUT",
        "url": "Organization/bfb93bb1-f1ea-47ec-ae7b-75ae2b7d06d6"
      }
    },
    {
      "fullUrl": "https://madie.cms.gov/Practitioner/2addbbc8-cc42-441a-b9da-5ee70c3b9ec4",
      "resource": {
        "resourceType": "Practitioner",
        "id": "2addbbc8-cc42-441a-b9da-5ee70c3b9ec4",
        "meta": {
          "profile": [
            "http://hl7.org/fhir/us/qicore/StructureDefinition/qicore-practitioner"
          ]
        },
        "identifier": [
          {
            "system": "http://hl7.org/fhir/sid/us-npi",
            "value": "123456"
          }
        ],
        "name": [
          {
            "family": "Evil",
            "prefix": [
              "Dr"
            ]
          }
        ]
      },
      "request": {
        "method": "PUT",
        "url": "Practitioner/2addbbc8-cc42-441a-b9da-5ee70c3b9ec4"
      }
    },
    {
      "fullUrl": "https://madie.cms.gov/MeasureReport/98e17816-d091-482d-acb9-427884592f25",
      "resource": {
        "resourceType": "MeasureReport",
        "id": "98e17816-d091-482d-acb9-427884592f25",
        "meta": {
          "profile": [
            "http://hl7.org/fhir/us/cqfmeasures/StructureDefinition/test-case-cqfm"
          ]
        },
        "contained": [
          {
            "resourceType": "Parameters",
            "id": "40b57230-f263-4678-a678-78bf84a0c943-parameters",
            "parameter": [
              {
                "name": "subject",
                "valueString": "03094c7f-fb74-4f51-8ee5-a5e4a2411a9f"
              }
            ]
          }
        ],
        "extension": [
          {
            "url": "http://hl7.org/fhir/us/cqfmeasures/StructureDefinition/cqfm-inputParameters",
            "valueReference": {
              "reference": "#40b57230-f263-4678-a678-78bf84a0c943-parameters"
            }
          },
          {
            "url": "http://hl7.org/fhir/us/cqfmeasures/StructureDefinition/cqfm-testCaseDescription",
            "valueMarkdown": "Enc first day of MP (7/1), lab and exams occurred 1 minute after admission"
          }
        ],
        "modifierExtension": [
          {
            "url": "http://hl7.org/fhir/us/cqfmeasures/StructureDefinition/cqfm-isTestCase",
            "valueBoolean": true
          }
        ],
        "status": "complete",
        "type": "individual",
        "measure": "https://madie.cms.gov/Measure/HybridHospitalWideMortalityFHIR",
        "period": {
          "start": "2025-07-01",
          "end": "2026-06-30"
        },
        "group": [
          {
            "population": [
              {
                "code": {
                  "coding": [
                    {
                      "system": "http://terminology.hl7.org/CodeSystem/measure-population",
                      "code": "initial-population",
                      "display": "Initial Population"
                    }
                  ]
                },
                "count": 1
              }
            ]
          }
        ],
        "evaluatedResource": [
          {
            "reference": "Patient/03094c7f-fb74-4f51-8ee5-a5e4a2411a9f"
          },
          {
            "reference": "Encounter/4eee26ae-e8ca-4a6f-abac-95e2ba79e704"
          },
          {
            "reference": "Coverage/22371dc5-4ded-4b0b-9e0c-dd256682eda4"
          },
          {
            "reference": "Observation/5cbe5ea9-c784-470f-9ae4-28b4f6a7f6e2"
          },
          {
            "reference": "Observation/7bee29cc-34be-4e2c-9e1f-682c71848d72"
          },
          {
            "reference": "Observation/6e7576d9-13ba-4e22-8b20-55baf9f3b777"
          },
          {
            "reference": "Organization/bfb93bb1-f1ea-47ec-ae7b-75ae2b7d06d6"
          },
          {
            "reference": "Practitioner/2addbbc8-cc42-441a-b9da-5ee70c3b9ec4"
          }
        ]
      },
      "request": {
        "method": "PUT",
        "url": "MeasureReport/98e17816-d091-482d-acb9-427884592f25"
      }
    }
  ]
}