{
  "resourceType": "Bundle",
  "id": "2Encountersat100752",
  "type": "transaction",
  "entry": [
    {
      "fullUrl": "https://madie.cms.gov/Patient/bc357cab-7108-41e2-88a3-f8969454bcce",
      "resource": {
        "resourceType": "Patient",
        "id": "bc357cab-7108-41e2-88a3-f8969454bcce",
        "meta": {
          "profile": [
            "http://hl7.org/fhir/us/qicore/StructureDefinition/qicore-patient"
          ]
        },
        "text": {
          "status": "generated",
          "div": "<div xmlns=\"http://www.w3.org/1999/xhtml\"><div class=\"hapiHeaderText\">2Encountersat100752, , <b> </b></div><table class=\"hapiPropertyTable\"><tbody><tr><td>Identifier</td><td>2Encountersat100752</td></tr><tr><td>Date of birth</td><td><span>14 May 1950</span></td></tr></tbody></table></div>"
        },
        "extension": [
          {
            "url": "http://hl7.org/fhir/us/core/StructureDefinition/us-core-race",
            "extension": [
              {
                "url": "ombCategory",
                "valueCoding": {
                  "system": "urn:oid:2.16.840.1.113883.6.238",
                  "code": "2106-3",
                  "display": "White",
                  "userSelected": true
                }
              },
              {
                "url": "text",
                "valueString": "White"
              }
            ]
          },
          {
            "url": "http://hl7.org/fhir/us/core/StructureDefinition/us-core-ethnicity",
            "extension": [
              {
                "url": "ombCategory",
                "valueCoding": {
                  "system": "urn:oid:2.16.840.1.113883.6.238",
                  "code": "2186-5",
                  "display": "Not Hispanic or Latino",
                  "userSelected": true
                }
              },
              {
                "url": "text",
                "valueString": "Not Hispanic or Latino"
              }
            ]
          }
        ],
        "identifier": [
          {
            "type": {
              "coding": [
                {
                  "system": "http://terminology.hl7.org/CodeSystem/v2-0203",
                  "code": "MR"
                }
              ]
            },
            "system": "https://madie.cms.gov/",
            "value": "2Encountersat100752"
          }
        ],
        "active": true,
        "name": [
          {
            "use": "usual",
            "text": "2Encountersat100752",
            "family": "DENOMPass44",
            "given": [
              "2Encountersat100752DENOMPass44"
            ]
          }
        ],
        "gender": "male",
        "birthDate": "1950-05-14",
        "address": [
          {
            "text": "2Encountersat100752, Screened Not at risk Assessed Severely Malnourished Diagnosed Care Plan, ID=2Encountersat100752, DOB: 14 May 1950"
          }
        ]
      },
      "request": {
        "method": "PUT",
        "url": "Patient/bc357cab-7108-41e2-88a3-f8969454bcce"
      }
    },
    {
      "fullUrl": "https://madie.cms.gov/Encounter/29e82fe9-b283-4234-8537-35103c60e974",
      "resource": {
        "resourceType": "Encounter",
        "id": "29e82fe9-b283-4234-8537-35103c60e974",
        "meta": {
          "profile": [
            "http://hl7.org/fhir/us/qicore/StructureDefinition/qicore-encounter"
          ]
        },
        "status": "finished",
        "class": {
          "system": "http://terminology.hl7.org/CodeSystem/v3-ActCode",
          "code": "IMP",
          "display": "inpatient encounter"
        },
        "type": [
          {
            "coding": [
              {
                "system": "http://snomed.info/sct",
                "code": "183452005"
              }
            ]
          }
        ],
        "subject": {
          "reference": "Patient/bc357cab-7108-41e2-88a3-f8969454bcce"
        },
        "period": {
          "start": "2026-02-01T08:00:00.000Z",
          "end": "2026-02-07T08:15:00.000Z"
        }
      },
      "request": {
        "method": "PUT",
        "url": "Encounter/29e82fe9-b283-4234-8537-35103c60e974"
      }
    },
    {
      "fullUrl": "https://madie.cms.gov/Condition/43ed8206-61f0-4174-a495-1a57f946d389",
      "resource": {
        "resourceType": "Condition",
        "id": "43ed8206-61f0-4174-a495-1a57f946d389",
        "meta": {
          "profile": [
            "http://hl7.org/fhir/us/qicore/StructureDefinition/qicore-condition"
          ]
        },
        "clinicalStatus": {
          "coding": [
            {
              "system": "http://terminology.hl7.org/CodeSystem/condition-clinical",
              "code": "active",
              "display": "Active",
              "userSelected": true
            }
          ]
        },
        "verificationStatus": {
          "coding": [
            {
              "system": "http://terminology.hl7.org/CodeSystem/condition-ver-status",
              "code": "confirmed",
              "display": "Confirmed",
              "userSelected": true
            }
          ]
        },
        "category": [
          {
            "coding": [
              {
                "system": "http://terminology.hl7.org/CodeSystem/condition-category",
                "code": "encounter-diagnosis",
                "display": "Encounter Diagnosis",
                "userSelected": true
              }
            ]
          }
        ],
        "code": {
          "coding": [
            {
              "system": "http://snomed.info/sct",
              "code": "272588001",
              "display": "Malnutrition (calorie) (disorder)",
              "userSelected": true
            }
          ]
        },
        "subject": {
          "reference": "Patient/bc357cab-7108-41e2-88a3-f8969454bcce"
        },
        "onsetPeriod": {
          "start": "2026-02-01T08:00:00.000+00:00",
          "end": "2026-02-06T08:00:00.000+00:00"
        },
        "recordedDate": "2026-02-01T11:00:00.000+00:00"
      },
      "request": {
        "method": "PUT",
        "url": "Condition/43ed8206-61f0-4174-a495-1a57f946d389"
      }
    },
    {
      "fullUrl": "https://madie.cms.gov/Observation/4835a310-23c8-45fb-8a74-d226f26415d6",
      "resource": {
        "resourceType": "Observation",
        "id": "4835a310-23c8-45fb-8a74-d226f26415d6",
        "meta": {
          "profile": [
            "http://hl7.org/fhir/us/qicore/StructureDefinition/qicore-observation"
          ]
        },
        "status": "final",
        "category": [
          {
            "coding": [
              {
                "system": "http://terminology.hl7.org/CodeSystem/observation-category",
                "code": "survey",
                "display": "Survey"
              }
            ]
          }
        ],
        "code": {
          "coding": [
            {
              "system": "http://loinc.org",
              "code": "98968-1",
              "display": "Initial Screening NRS_2002",
              "userSelected": true
            }
          ]
        },
        "subject": {
          "reference": "Patient/bc357cab-7108-41e2-88a3-f8969454bcce"
        },
        "effectiveDateTime": "2026-02-01T09:00:00.000+00:00",
        "valueCodeableConcept": {
          "coding": [
            {
              "system": "http://loinc.org",
              "code": "LA33699-2",
              "display": "Not at risk for malnutrition",
              "userSelected": true
            }
          ]
        }
      },
      "request": {
        "method": "PUT",
        "url": "Observation/4835a310-23c8-45fb-8a74-d226f26415d6"
      }
    },
    {
      "fullUrl": "https://madie.cms.gov/Observation/9d310c4e-5206-456e-b260-c5067b4d69c2",
      "resource": {
        "resourceType": "Observation",
        "id": "9d310c4e-5206-456e-b260-c5067b4d69c2",
        "meta": {
          "profile": [
            "http://hl7.org/fhir/us/qicore/StructureDefinition/qicore-observation"
          ]
        },
        "status": "final",
        "category": [
          {
            "coding": [
              {
                "system": "http://terminology.hl7.org/CodeSystem/observation-category",
                "code": "survey",
                "display": "Survey"
              }
            ]
          }
        ],
        "code": {
          "coding": [
            {
              "system": "http://loinc.org",
              "code": "75285-7",
              "display": "Comparative nutrition assessment standards panel",
              "userSelected": true
            }
          ]
        },
        "subject": {
          "reference": "Patient/bc357cab-7108-41e2-88a3-f8969454bcce"
        },
        "effectiveDateTime": "2026-02-01T10:00:00.000+00:00",
        "valueCodeableConcept": {
          "coding": [
            {
              "system": "http://snomed.info/sct",
              "code": "272588001",
              "display": "Malnutrition (calorie) (disorder)",
              "userSelected": true
            }
          ]
        }
      },
      "request": {
        "method": "PUT",
        "url": "Observation/9d310c4e-5206-456e-b260-c5067b4d69c2"
      }
    },
    {
      "fullUrl": "https://madie.cms.gov/Procedure/231b956b-5b6c-490f-872b-b52dc94e64c1",
      "resource": {
        "resourceType": "Procedure",
        "id": "231b956b-5b6c-490f-872b-b52dc94e64c1",
        "meta": {
          "profile": [
            "http://hl7.org/fhir/us/qicore/StructureDefinition/qicore-procedure"
          ]
        },
        "extension": [
          {
            "url": "http://hl7.org/fhir/us/qicore/StructureDefinition/qicore-recorded",
            "valueDateTime": "2025-02-01T11:30:00.000Z"
          }
        ],
        "status": "completed",
        "code": {
          "coding": [
            {
              "system": "http://snomed.info/sct",
              "code": "306354000",
              "display": "Referral to hospital-based dietitian (procedure)"
            }
          ],
          "text": "Referral to hospital-based dietitian (procedure)"
        },
        "subject": {
          "reference": "Patient/bc357cab-7108-41e2-88a3-f8969454bcce"
        },
        "encounter": {
          "reference": "Encounter/2Encountersat100752DENOMPass44"
        },
        "performedPeriod": {
          "start": "2026-02-01T11:30:00.000Z",
          "end": "2026-02-07T08:15:00.000Z"
        }
      },
      "request": {
        "method": "PUT",
        "url": "Procedure/231b956b-5b6c-490f-872b-b52dc94e64c1"
      }
    },
    {
      "fullUrl": "https://madie.cms.gov/Procedure/eec3d3f0-fc43-4dd1-8328-b41ddd165c9a",
      "resource": {
        "resourceType": "Procedure",
        "id": "eec3d3f0-fc43-4dd1-8328-b41ddd165c9a",
        "meta": {
          "profile": [
            "http://hl7.org/fhir/us/qicore/StructureDefinition/qicore-procedure"
          ]
        },
        "extension": [
          {
            "url": "http://hl7.org/fhir/us/qicore/StructureDefinition/qicore-recorded",
            "valueDateTime": "2025-02-02T11:30:00.000Z"
          }
        ],
        "status": "completed",
        "code": {
          "coding": [
            {
              "system": "http://snomed.info/sct",
              "code": "386372009",
              "display": "Nutrition management (regime/therapy)"
            }
          ],
          "text": "Nutrition management (regime/therapy)"
        },
        "subject": {
          "reference": "Patient/bc357cab-7108-41e2-88a3-f8969454bcce"
        },
        "encounter": {
          "reference": "Encounter/2Encountersat100752DENOMPass44"
        },
        "performedPeriod": {
          "start": "2026-02-01T11:30:00.000Z",
          "end": "2026-02-07T08:15:00.000Z"
        }
      },
      "request": {
        "method": "PUT",
        "url": "Procedure/eec3d3f0-fc43-4dd1-8328-b41ddd165c9a"
      }
    },
    {
      "fullUrl": "https://madie.cms.gov/Coverage/4a85d9a7-1f80-4b78-bfc6-59b2871430b5",
      "resource": {
        "resourceType": "Coverage",
        "id": "4a85d9a7-1f80-4b78-bfc6-59b2871430b5",
        "meta": {
          "profile": [
            "http://hl7.org/fhir/us/qicore/StructureDefinition/qicore-coverage"
          ]
        },
        "status": "active",
        "type": {
          "coding": [
            {
              "system": "https://nahdo.org/sopt",
              "version": "9.2",
              "code": "11",
              "display": "Medicare Managed Care (Includes Medicare Advantage Plans)"
            }
          ]
        },
        "beneficiary": {
          "reference": "Patient/bc357cab-7108-41e2-88a3-f8969454bcce"
        },
        "period": {
          "start": "2024-10-01T00:00:00+00:00"
        },
        "payor": [
          {
            "reference": "Organization/64a8bee1-c147-4401-b3f4-117b49cabc2e"
          }
        ]
      },
      "request": {
        "method": "PUT",
        "url": "Coverage/4a85d9a7-1f80-4b78-bfc6-59b2871430b5"
      }
    },
    {
      "fullUrl": "https://madie.cms.gov/Encounter/12048960-8853-49f9-956d-412820f4f7b0",
      "resource": {
        "resourceType": "Encounter",
        "id": "12048960-8853-49f9-956d-412820f4f7b0",
        "meta": {
          "profile": [
            "http://hl7.org/fhir/us/qicore/StructureDefinition/qicore-encounter"
          ]
        },
        "status": "finished",
        "class": {
          "system": "http://terminology.hl7.org/CodeSystem/v3-ActCode",
          "code": "IMP",
          "display": "inpatient encounter"
        },
        "type": [
          {
            "coding": [
              {
                "system": "http://snomed.info/sct",
                "code": "183452005"
              }
            ]
          }
        ],
        "subject": {
          "reference": "Patient/bc357cab-7108-41e2-88a3-f8969454bcce"
        },
        "period": {
          "start": "2026-03-01T08:00:00.000Z",
          "end": "2026-03-07T08:15:00.000Z"
        }
      },
      "request": {
        "method": "PUT",
        "url": "Encounter/12048960-8853-49f9-956d-412820f4f7b0"
      }
    },
    {
      "fullUrl": "https://madie.cms.gov/Observation/a954d5a8-96af-46f3-9d4b-e6639ae6fac9",
      "resource": {
        "resourceType": "Observation",
        "id": "a954d5a8-96af-46f3-9d4b-e6639ae6fac9",
        "meta": {
          "profile": [
            "http://hl7.org/fhir/us/qicore/StructureDefinition/qicore-observation"
          ]
        },
        "status": "final",
        "category": [
          {
            "coding": [
              {
                "system": "http://terminology.hl7.org/CodeSystem/observation-category",
                "code": "survey",
                "display": "Survey"
              }
            ]
          }
        ],
        "code": {
          "coding": [
            {
              "system": "http://loinc.org",
              "code": "75285-7",
              "display": "Comparative nutrition assessment standards panel",
              "userSelected": true
            }
          ]
        },
        "subject": {
          "reference": "Patient/bc357cab-7108-41e2-88a3-f8969454bcce"
        },
        "effectiveDateTime": "2026-03-01T10:00:00.000+00:00",
        "valueCodeableConcept": {
          "coding": [
            {
              "system": "http://snomed.info/sct",
              "code": "272588001",
              "display": "Malnutrition (calorie) (disorder)",
              "userSelected": true
            }
          ]
        }
      },
      "request": {
        "method": "PUT",
        "url": "Observation/a954d5a8-96af-46f3-9d4b-e6639ae6fac9"
      }
    },
    {
      "fullUrl": "https://madie.cms.gov/Procedure/3511d50f-b816-4f14-8dec-cc187066f2ca",
      "resource": {
        "resourceType": "Procedure",
        "id": "3511d50f-b816-4f14-8dec-cc187066f2ca",
        "meta": {
          "profile": [
            "http://hl7.org/fhir/us/qicore/StructureDefinition/qicore-procedure"
          ]
        },
        "extension": [
          {
            "url": "http://hl7.org/fhir/us/qicore/StructureDefinition/qicore-recorded",
            "valueDateTime": "2025-03-01T11:30:00.000Z"
          }
        ],
        "status": "completed",
        "code": {
          "coding": [
            {
              "system": "http://snomed.info/sct",
              "code": "306354000",
              "display": "Referral to hospital-based dietitian (procedure)"
            }
          ],
          "text": "Referral to hospital-based dietitian (procedure)"
        },
        "subject": {
          "reference": "Patient/bc357cab-7108-41e2-88a3-f8969454bcce"
        },
        "encounter": {
          "reference": "Encounter/2Encountersat100752DENOMPass44"
        },
        "performedPeriod": {
          "start": "2026-03-01T11:30:00.000Z",
          "end": "2026-03-07T08:15:00.000Z"
        }
      },
      "request": {
        "method": "PUT",
        "url": "Procedure/3511d50f-b816-4f14-8dec-cc187066f2ca"
      }
    },
    {
      "fullUrl": "https://madie.cms.gov/Procedure/9a95397e-9897-4362-a404-4e8c54d1548a",
      "resource": {
        "resourceType": "Procedure",
        "id": "9a95397e-9897-4362-a404-4e8c54d1548a",
        "meta": {
          "profile": [
            "http://hl7.org/fhir/us/qicore/StructureDefinition/qicore-procedure"
          ]
        },
        "extension": [
          {
            "url": "http://hl7.org/fhir/us/qicore/StructureDefinition/qicore-recorded",
            "valueDateTime": "2026-02-02T11:30:00.000Z"
          }
        ],
        "status": "completed",
        "code": {
          "coding": [
            {
              "system": "http://snomed.info/sct",
              "code": "386372009",
              "display": "Nutrition management (regime/therapy)"
            }
          ],
          "text": "Nutrition management (regime/therapy)"
        },
        "subject": {
          "reference": "Patient/bc357cab-7108-41e2-88a3-f8969454bcce"
        },
        "encounter": {
          "reference": "Encounter/2Encountersat100752DENOMPass44"
        },
        "performedPeriod": {
          "start": "2026-03-01T11:30:00.000Z",
          "end": "2026-03-07T08:15:00.000Z"
        }
      },
      "request": {
        "method": "PUT",
        "url": "Procedure/9a95397e-9897-4362-a404-4e8c54d1548a"
      }
    },
    {
      "fullUrl": "https://madie.cms.gov/Coverage/7a069047-1967-4472-8d67-45c1c89ad0f2",
      "resource": {
        "resourceType": "Coverage",
        "id": "7a069047-1967-4472-8d67-45c1c89ad0f2",
        "meta": {
          "profile": [
            "http://hl7.org/fhir/us/qicore/StructureDefinition/qicore-coverage"
          ]
        },
        "status": "active",
        "type": {
          "coding": [
            {
              "system": "https://nahdo.org/sopt",
              "version": "9.2",
              "code": "11",
              "display": "Medicare Managed Care (Includes Medicare Advantage Plans)"
            }
          ]
        },
        "beneficiary": {
          "reference": "Patient/bc357cab-7108-41e2-88a3-f8969454bcce"
        },
        "period": {
          "start": "2024-10-01T00:00:00+00:00"
        },
        "payor": [
          {
            "reference": "Organization/64a8bee1-c147-4401-b3f4-117b49cabc2e"
          }
        ]
      },
      "request": {
        "method": "PUT",
        "url": "Coverage/7a069047-1967-4472-8d67-45c1c89ad0f2"
      }
    },
    {
      "fullUrl": "https://madie.cms.gov/Organization/64a8bee1-c147-4401-b3f4-117b49cabc2e",
      "resource": {
        "resourceType": "Organization",
        "id": "64a8bee1-c147-4401-b3f4-117b49cabc2e",
        "meta": {
          "profile": [
            "http://hl7.org/fhir/us/qicore/StructureDefinition/qicore-organization"
          ]
        },
        "identifier": [
          {
            "use": "temp",
            "system": "urn:oid:2.16.840.1.113883.4.4",
            "value": "21-3259825"
          }
        ],
        "active": true,
        "type": [
          {
            "coding": [
              {
                "system": "http://terminology.hl7.org/CodeSystem/organization-type",
                "code": "pay",
                "display": "Payer"
              }
            ]
          }
        ],
        "name": "Blue Cross Blue Shield of Texas",
        "telecom": [
          {
            "system": "phone",
            "value": "(+1) 972-766-6900"
          }
        ],
        "address": [
          {
            "use": "billing",
            "type": "postal",
            "line": [
              "P.O. Box 660044"
            ],
            "city": "Dallas",
            "state": "TX",
            "postalCode": "75266-0044",
            "country": "USA"
          }
        ]
      },
      "request": {
        "method": "PUT",
        "url": "Organization/64a8bee1-c147-4401-b3f4-117b49cabc2e"
      }
    },
    {
      "fullUrl": "https://madie.cms.gov/MeasureReport/1cce3c25-ee52-4948-8d3b-be559db42740",
      "resource": {
        "resourceType": "MeasureReport",
        "id": "1cce3c25-ee52-4948-8d3b-be559db42740",
        "meta": {
          "profile": [
            "http://hl7.org/fhir/us/cqfmeasures/StructureDefinition/test-case-cqfm"
          ]
        },
        "contained": [
          {
            "resourceType": "Parameters",
            "id": "fe53155f-cec6-48f7-9832-ef6b14a7bfee-parameters",
            "parameter": [
              {
                "name": "subject",
                "valueString": "bc357cab-7108-41e2-88a3-f8969454bcce"
              }
            ]
          }
        ],
        "extension": [
          {
            "url": "http://hl7.org/fhir/us/cqfmeasures/StructureDefinition/cqfm-inputParameters",
            "valueReference": {
              "reference": "#fe53155f-cec6-48f7-9832-ef6b14a7bfee-parameters"
            }
          },
          {
            "url": "http://hl7.org/fhir/us/cqfmeasures/StructureDefinition/cqfm-testCaseDescription",
            "valueMarkdown": "Multiple Encounters"
          }
        ],
        "modifierExtension": [
          {
            "url": "http://hl7.org/fhir/us/cqfmeasures/StructureDefinition/cqfm-isTestCase",
            "valueBoolean": true
          }
        ],
        "status": "complete",
        "type": "individual",
        "measure": "https://madie.cms.gov/Measure/GlobalMalnutritionCompositeFHIR",
        "period": {
          "start": "2026-01-01",
          "end": "2026-12-31"
        },
        "group": [
          {
            "population": [
              {
                "code": {
                  "coding": [
                    {
                      "system": "http://terminology.hl7.org/CodeSystem/measure-population",
                      "code": "initial-population",
                      "display": "Initial Population"
                    }
                  ]
                },
                "count": 2
              },
              {
                "code": {
                  "coding": [
                    {
                      "system": "http://terminology.hl7.org/CodeSystem/measure-population",
                      "code": "measure-population",
                      "display": "Measure Population"
                    }
                  ]
                },
                "count": 2
              },
              {
                "code": {
                  "coding": [
                    {
                      "system": "http://terminology.hl7.org/CodeSystem/measure-population",
                      "code": "measure-population-observation",
                      "display": "Measure Population Observation"
                    }
                  ]
                },
                "count": 1
              },
              {
                "code": {
                  "coding": [
                    {
                      "system": "http://terminology.hl7.org/CodeSystem/measure-population",
                      "code": "measure-population-observation",
                      "display": "Measure Population Observation"
                    }
                  ]
                },
                "count": 1
              }
            ]
          },
          {
            "population": [
              {
                "code": {
                  "coding": [
                    {
                      "system": "http://terminology.hl7.org/CodeSystem/measure-population",
                      "code": "initial-population",
                      "display": "Initial Population"
                    }
                  ]
                },
                "count": 2
              },
              {
                "code": {
                  "coding": [
                    {
                      "system": "http://terminology.hl7.org/CodeSystem/measure-population",
                      "code": "measure-population",
                      "display": "Measure Population"
                    }
                  ]
                },
                "count": 2
              },
              {
                "code": {
                  "coding": [
                    {
                      "system": "http://terminology.hl7.org/CodeSystem/measure-population",
                      "code": "measure-population-observation",
                      "display": "Measure Population Observation"
                    }
                  ]
                },
                "count": 1
              },
              {
                "code": {
                  "coding": [
                    {
                      "system": "http://terminology.hl7.org/CodeSystem/measure-population",
                      "code": "measure-population-observation",
                      "display": "Measure Population Observation"
                    }
                  ]
                },
                "count": 1
              }
            ]
          },
          {
            "population": [
              {
                "code": {
                  "coding": [
                    {
                      "system": "http://terminology.hl7.org/CodeSystem/measure-population",
                      "code": "initial-population",
                      "display": "Initial Population"
                    }
                  ]
                },
                "count": 2
              },
              {
                "code": {
                  "coding": [
                    {
                      "system": "http://terminology.hl7.org/CodeSystem/measure-population",
                      "code": "measure-population",
                      "display": "Measure Population"
                    }
                  ]
                },
                "count": 2
              },
              {
                "code": {
                  "coding": [
                    {
                      "system": "http://terminology.hl7.org/CodeSystem/measure-population",
                      "code": "measure-population-observation",
                      "display": "Measure Population Observation"
                    }
                  ]
                },
                "count": 1
              },
              {
                "code": {
                  "coding": [
                    {
                      "system": "http://terminology.hl7.org/CodeSystem/measure-population",
                      "code": "measure-population-observation",
                      "display": "Measure Population Observation"
                    }
                  ]
                },
                "count": 1
              }
            ]
          },
          {
            "population": [
              {
                "code": {
                  "coding": [
                    {
                      "system": "http://terminology.hl7.org/CodeSystem/measure-population",
                      "code": "initial-population",
                      "display": "Initial Population"
                    }
                  ]
                },
                "count": 2
              },
              {
                "code": {
                  "coding": [
                    {
                      "system": "http://terminology.hl7.org/CodeSystem/measure-population",
                      "code": "measure-population",
                      "display": "Measure Population"
                    }
                  ]
                },
                "count": 2
              },
              {
                "code": {
                  "coding": [
                    {
                      "system": "http://terminology.hl7.org/CodeSystem/measure-population",
                      "code": "measure-population-observation",
                      "display": "Measure Population Observation"
                    }
                  ]
                },
                "count": 1
              },
              {
                "code": {
                  "coding": [
                    {
                      "system": "http://terminology.hl7.org/CodeSystem/measure-population",
                      "code": "measure-population-observation",
                      "display": "Measure Population Observation"
                    }
                  ]
                },
                "count": 1
              }
            ]
          },
          {
            "population": [
              {
                "code": {
                  "coding": [
                    {
                      "system": "http://terminology.hl7.org/CodeSystem/measure-population",
                      "code": "initial-population",
                      "display": "Initial Population"
                    }
                  ]
                },
                "count": 2
              },
              {
                "code": {
                  "coding": [
                    {
                      "system": "http://terminology.hl7.org/CodeSystem/measure-population",
                      "code": "measure-population",
                      "display": "Measure Population"
                    }
                  ]
                },
                "count": 2
              },
              {
                "code": {
                  "coding": [
                    {
                      "system": "http://terminology.hl7.org/CodeSystem/measure-population",
                      "code": "measure-population-observation",
                      "display": "Measure Population Observation"
                    }
                  ]
                },
                "count": 4
              },
              {
                "code": {
                  "coding": [
                    {
                      "system": "http://terminology.hl7.org/CodeSystem/measure-population",
                      "code": "measure-population-observation",
                      "display": "Measure Population Observation"
                    }
                  ]
                },
                "count": 4
              }
            ]
          },
          {
            "population": [
              {
                "code": {
                  "coding": [
                    {
                      "system": "http://terminology.hl7.org/CodeSystem/measure-population",
                      "code": "initial-population",
                      "display": "Initial Population"
                    }
                  ]
                },
                "count": 2
              },
              {
                "code": {
                  "coding": [
                    {
                      "system": "http://terminology.hl7.org/CodeSystem/measure-population",
                      "code": "measure-population",
                      "display": "Measure Population"
                    }
                  ]
                },
                "count": 2
              },
              {
                "code": {
                  "coding": [
                    {
                      "system": "http://terminology.hl7.org/CodeSystem/measure-population",
                      "code": "measure-population-observation",
                      "display": "Measure Population Observation"
                    }
                  ]
                },
                "count": 100
              },
              {
                "code": {
                  "coding": [
                    {
                      "system": "http://terminology.hl7.org/CodeSystem/measure-population",
                      "code": "measure-population-observation",
                      "display": "Measure Population Observation"
                    }
                  ]
                },
                "count": 100
              }
            ]
          }
        ],
        "evaluatedResource": [
          {
            "reference": "Patient/bc357cab-7108-41e2-88a3-f8969454bcce"
          },
          {
            "reference": "Encounter/29e82fe9-b283-4234-8537-35103c60e974"
          },
          {
            "reference": "Condition/43ed8206-61f0-4174-a495-1a57f946d389"
          },
          {
            "reference": "Observation/4835a310-23c8-45fb-8a74-d226f26415d6"
          },
          {
            "reference": "Observation/9d310c4e-5206-456e-b260-c5067b4d69c2"
          },
          {
            "reference": "Procedure/231b956b-5b6c-490f-872b-b52dc94e64c1"
          },
          {
            "reference": "Procedure/eec3d3f0-fc43-4dd1-8328-b41ddd165c9a"
          },
          {
            "reference": "Coverage/4a85d9a7-1f80-4b78-bfc6-59b2871430b5"
          },
          {
            "reference": "Encounter/12048960-8853-49f9-956d-412820f4f7b0"
          },
          {
            "reference": "Observation/a954d5a8-96af-46f3-9d4b-e6639ae6fac9"
          },
          {
            "reference": "Procedure/3511d50f-b816-4f14-8dec-cc187066f2ca"
          },
          {
            "reference": "Procedure/9a95397e-9897-4362-a404-4e8c54d1548a"
          },
          {
            "reference": "Coverage/7a069047-1967-4472-8d67-45c1c89ad0f2"
          },
          {
            "reference": "Organization/64a8bee1-c147-4401-b3f4-117b49cabc2e"
          }
        ]
      },
      "request": {
        "method": "PUT",
        "url": "MeasureReport/1cce3c25-ee52-4948-8d3b-be559db42740"
      }
    }
  ]
}