{
  "resourceType": "Bundle",
  "id": "6129132202c62a011f2e5ece",
  "type": "transaction",
  "entry": [
    {
      "fullUrl": "https://madie.cms.gov/Patient/b91f95d8-b48b-4ee7-bade-d6f5ab3e9448",
      "resource": {
        "resourceType": "Patient",
        "id": "b91f95d8-b48b-4ee7-bade-d6f5ab3e9448",
        "meta": {
          "profile": [
            "http://hl7.org/fhir/us/qicore/StructureDefinition/qicore-patient"
          ]
        },
        "text": {
          "status": "generated",
          "div": "<div xmlns=\"http://www.w3.org/1999/xhtml\"><div class=\"hapiHeaderText\">DischargeACF <b>DENEXPASS </b></div><table class=\"hapiPropertyTable\"><tbody><tr><td>Identifier</td><td>4314501ac9915755d89aa739ef32efe2</td></tr><tr><td>Date of birth</td><td><span>21 August 1994</span></td></tr></tbody></table></div>"
        },
        "extension": [
          {
            "url": "http://hl7.org/fhir/us/core/StructureDefinition/us-core-race",
            "extension": [
              {
                "url": "ombCategory",
                "valueCoding": {
                  "system": "urn:oid:2.16.840.1.113883.6.238",
                  "code": "1002-5",
                  "display": "American Indian or Alaska Native",
                  "userSelected": true
                }
              },
              {
                "url": "text",
                "valueString": "American Indian or Alaska Native"
              }
            ]
          },
          {
            "url": "http://hl7.org/fhir/us/core/StructureDefinition/us-core-ethnicity",
            "extension": [
              {
                "url": "ombCategory",
                "valueCoding": {
                  "system": "urn:oid:2.16.840.1.113883.6.238",
                  "code": "2135-2",
                  "display": "Hispanic or Latino",
                  "userSelected": true
                }
              },
              {
                "url": "text",
                "valueString": "Hispanic or Latino"
              }
            ]
          }
        ],
        "identifier": [
          {
            "type": {
              "coding": [
                {
                  "system": "http://terminology.hl7.org/CodeSystem/v2-0203",
                  "code": "MR"
                }
              ]
            },
            "system": "https://bonnie-fhir.healthit.gov/",
            "value": "6129132202c62a011f2e5ece"
          }
        ],
        "active": true,
        "name": [
          {
            "use": "usual",
            "family": "DENEXPass",
            "given": [
              "DischargeACF"
            ]
          }
        ],
        "gender": "male",
        "birthDate": "1994-08-21"
      },
      "request": {
        "method": "PUT",
        "url": "Patient/b91f95d8-b48b-4ee7-bade-d6f5ab3e9448"
      }
    },
    {
      "fullUrl": "https://madie.cms.gov/Encounter/61f55f8c-3818-4471-af9d-12e1f9f09fef",
      "resource": {
        "resourceType": "Encounter",
        "id": "61f55f8c-3818-4471-af9d-12e1f9f09fef",
        "meta": {
          "profile": [
            "http://hl7.org/fhir/us/qicore/StructureDefinition/qicore-encounter"
          ]
        },
        "status": "finished",
        "class": {
          "system": "http://terminology.hl7.org/CodeSystem/v3-ActCode",
          "code": "IMP",
          "display": "inpatient encounter",
          "userSelected": true
        },
        "type": [
          {
            "coding": [
              {
                "system": "http://snomed.info/sct",
                "code": "32485007"
              }
            ]
          }
        ],
        "subject": {
          "reference": "Patient/b91f95d8-b48b-4ee7-bade-d6f5ab3e9448"
        },
        "period": {
          "start": "2025-10-10T09:30:00.000+00:00",
          "end": "2025-10-12T10:30:00.000+00:00"
        },
        "length": {
          "value": 2,
          "unit": "days"
        },
        "diagnosis": [
          {
            "condition": {
              "reference": "Condition/3642ae22-1898-42a3-b8ac-d335362ad68a"
            },
            "use": {
              "coding": [
                {
                  "system": "http://terminology.hl7.org/CodeSystem/diagnosis-role",
                  "code": "billing",
                  "display": "Billing"
                }
              ]
            },
            "rank": 1
          }
        ],
        "hospitalization": {
          "dischargeDisposition": {
            "coding": [
              {
                "system": "http://snomed.info/sct",
                "code": "306701001",
                "display": "Discharge To Acute Care Facility"
              }
            ]
          }
        }
      },
      "request": {
        "method": "PUT",
        "url": "Encounter/61f55f8c-3818-4471-af9d-12e1f9f09fef"
      }
    },
    {
      "fullUrl": "https://madie.cms.gov/Condition/3642ae22-1898-42a3-b8ac-d335362ad68a",
      "resource": {
        "resourceType": "Condition",
        "id": "3642ae22-1898-42a3-b8ac-d335362ad68a",
        "meta": {
          "profile": [
            "http://hl7.org/fhir/us/qicore/StructureDefinition/qicore-condition"
          ]
        },
        "clinicalStatus": {
          "coding": [
            {
              "system": "http://terminology.hl7.org/CodeSystem/condition-clinical",
              "code": "active"
            }
          ]
        },
        "verificationStatus": {
          "coding": [
            {
              "system": "http://terminology.hl7.org/CodeSystem/condition-ver-status",
              "code": "confirmed"
            }
          ]
        },
        "category": [
          {
            "coding": [
              {
                "system": "http://terminology.hl7.org/CodeSystem/condition-category",
                "code": "encounter-diagnosis",
                "display": "Encounter Diagnosis"
              }
            ]
          }
        ],
        "code": {
          "coding": [
            {
              "system": "http://snomed.info/sct",
              "version": "2020-09",
              "code": "111297002",
              "display": "Nonparalytic stroke (disorder)",
              "userSelected": true
            }
          ]
        },
        "subject": {
          "reference": "Patient/b91f95d8-b48b-4ee7-bade-d6f5ab3e9448"
        },
        "recordedDate": "2025-07-15T08:00:00.000+00:00"
      },
      "request": {
        "method": "PUT",
        "url": "Condition/3642ae22-1898-42a3-b8ac-d335362ad68a"
      }
    },
    {
      "fullUrl": "https://madie.cms.gov/Coverage/946a564c-e2bc-48b3-bf22-e6519c5acfeb",
      "resource": {
        "resourceType": "Coverage",
        "id": "946a564c-e2bc-48b3-bf22-e6519c5acfeb",
        "meta": {
          "profile": [
            "http://hl7.org/fhir/us/qicore/StructureDefinition/qicore-coverage"
          ]
        },
        "status": "active",
        "beneficiary": {
          "reference": "Patient/b91f95d8-b48b-4ee7-bade-d6f5ab3e9448"
        },
        "payor": [
          {
            "reference": "Organization/37d5e99d-2d02-4092-8bc1-455b0d0a2568"
          }
        ]
      },
      "request": {
        "method": "PUT",
        "url": "Coverage/946a564c-e2bc-48b3-bf22-e6519c5acfeb"
      }
    },
    {
      "fullUrl": "https://madie.cms.gov/Organization/37d5e99d-2d02-4092-8bc1-455b0d0a2568",
      "resource": {
        "resourceType": "Organization",
        "id": "37d5e99d-2d02-4092-8bc1-455b0d0a2568",
        "meta": {
          "profile": [
            "http://hl7.org/fhir/us/qicore/StructureDefinition/qicore-organization"
          ]
        },
        "identifier": [
          {
            "use": "temp",
            "system": "urn:oid:2.16.840.1.113883.4.4",
            "value": "21-3259825"
          }
        ],
        "active": true,
        "type": [
          {
            "coding": [
              {
                "system": "http://terminology.hl7.org/CodeSystem/organization-type",
                "code": "pay",
                "display": "Payer"
              }
            ]
          }
        ],
        "name": "Blue Cross Blue Shield of Texas",
        "telecom": [
          {
            "system": "phone",
            "value": "(+1) 972-766-6900"
          }
        ],
        "address": [
          {
            "use": "billing",
            "type": "postal",
            "line": [
              "P.O. Box 660044"
            ],
            "city": "Dallas",
            "state": "TX",
            "postalCode": "75266-0044",
            "country": "USA"
          }
        ]
      },
      "request": {
        "method": "PUT",
        "url": "Organization/37d5e99d-2d02-4092-8bc1-455b0d0a2568"
      }
    },
    {
      "fullUrl": "https://madie.cms.gov/MeasureReport/0c68a132-5308-4893-a048-1fecf8b583f4",
      "resource": {
        "resourceType": "MeasureReport",
        "id": "0c68a132-5308-4893-a048-1fecf8b583f4",
        "meta": {
          "profile": [
            "http://hl7.org/fhir/us/cqfmeasures/StructureDefinition/test-case-cqfm"
          ]
        },
        "contained": [
          {
            "resourceType": "Parameters",
            "id": "2851b8cb-b764-4131-82d7-6361d0de50e6-parameters",
            "parameter": [
              {
                "name": "subject",
                "valueString": "b91f95d8-b48b-4ee7-bade-d6f5ab3e9448"
              }
            ]
          }
        ],
        "extension": [
          {
            "url": "http://hl7.org/fhir/us/cqfmeasures/StructureDefinition/cqfm-inputParameters",
            "valueReference": {
              "reference": "#2851b8cb-b764-4131-82d7-6361d0de50e6-parameters"
            }
          },
          {
            "url": "http://hl7.org/fhir/us/cqfmeasures/StructureDefinition/cqfm-testCaseDescription",
            "valueMarkdown": "Patient is 18 with Non-Elective Inpatient Encounter with principal diagnosis of ischemic stroke ends during MP discharged to acute care facility"
          }
        ],
        "modifierExtension": [
          {
            "url": "http://hl7.org/fhir/us/cqfmeasures/StructureDefinition/cqfm-isTestCase",
            "valueBoolean": true
          }
        ],
        "status": "complete",
        "type": "individual",
        "measure": "https://madie.cms.gov/Measure/DischargedonAntithromboticTherapyFHIR",
        "period": {
          "start": "2025-01-01",
          "end": "2025-12-31"
        },
        "group": [
          {
            "population": [
              {
                "code": {
                  "coding": [
                    {
                      "system": "http://terminology.hl7.org/CodeSystem/measure-population",
                      "code": "initial-population",
                      "display": "Initial Population"
                    }
                  ]
                },
                "count": 1
              },
              {
                "code": {
                  "coding": [
                    {
                      "system": "http://terminology.hl7.org/CodeSystem/measure-population",
                      "code": "denominator",
                      "display": "Denominator"
                    }
                  ]
                },
                "count": 1
              },
              {
                "code": {
                  "coding": [
                    {
                      "system": "http://terminology.hl7.org/CodeSystem/measure-population",
                      "code": "denominator-exclusion",
                      "display": "Denominator Exclusion"
                    }
                  ]
                },
                "count": 1
              },
              {
                "code": {
                  "coding": [
                    {
                      "system": "http://terminology.hl7.org/CodeSystem/measure-population",
                      "code": "numerator",
                      "display": "Numerator"
                    }
                  ]
                },
                "count": 0
              },
              {
                "code": {
                  "coding": [
                    {
                      "system": "http://terminology.hl7.org/CodeSystem/measure-population",
                      "code": "denominator-exception",
                      "display": "Denominator Exception"
                    }
                  ]
                },
                "count": 0
              }
            ]
          }
        ],
        "evaluatedResource": [
          {
            "reference": "Patient/b91f95d8-b48b-4ee7-bade-d6f5ab3e9448"
          },
          {
            "reference": "Encounter/61f55f8c-3818-4471-af9d-12e1f9f09fef"
          },
          {
            "reference": "Condition/3642ae22-1898-42a3-b8ac-d335362ad68a"
          },
          {
            "reference": "Coverage/946a564c-e2bc-48b3-bf22-e6519c5acfeb"
          },
          {
            "reference": "Organization/37d5e99d-2d02-4092-8bc1-455b0d0a2568"
          }
        ]
      },
      "request": {
        "method": "PUT",
        "url": "MeasureReport/0c68a132-5308-4893-a048-1fecf8b583f4"
      }
    }
  ]
}