{
  "resourceType": "Bundle",
  "id": "633b3f9e0968f80122503cd8",
  "type": "transaction",
  "entry": [
    {
      "fullUrl": "https://madie.cms.gov/Patient/c07808ee-d675-44e8-93af-06a9e16e79ae",
      "resource": {
        "resourceType": "Patient",
        "id": "c07808ee-d675-44e8-93af-06a9e16e79ae",
        "meta": {
          "profile": [
            "http://hl7.org/fhir/us/qicore/StructureDefinition/qicore-patient"
          ]
        },
        "text": {
          "status": "generated",
          "div": "<div xmlns=\"http://www.w3.org/1999/xhtml\"><div class=\"hapiHeaderText\">Test5EDDMinutesImpactOnWksGest <b>DENOMPASS </b></div><table class=\"hapiPropertyTable\"><tbody><tr><td>Date of birth</td><td><span>01 February 1958</span></td></tr></tbody></table></div>"
        },
        "extension": [
          {
            "url": "http://hl7.org/fhir/us/core/StructureDefinition/us-core-race",
            "extension": [
              {
                "url": "ombCategory",
                "valueCoding": {
                  "system": "urn:oid:2.16.840.1.113883.6.238",
                  "code": "1002-5",
                  "display": "American Indian or Alaska Native",
                  "userSelected": true
                }
              },
              {
                "url": "text",
                "valueString": "American Indian or Alaska Native"
              }
            ]
          },
          {
            "url": "http://hl7.org/fhir/us/core/StructureDefinition/us-core-ethnicity",
            "extension": [
              {
                "url": "ombCategory",
                "valueCoding": {
                  "system": "urn:oid:2.16.840.1.113883.6.238",
                  "code": "2135-2",
                  "display": "Hispanic or Latino",
                  "userSelected": true
                }
              },
              {
                "url": "text",
                "valueString": "Hispanic or Latino"
              }
            ]
          }
        ],
        "identifier": [
          {
            "type": {
              "coding": [
                {
                  "system": "http://terminology.hl7.org/CodeSystem/v2-0203",
                  "code": "MR"
                }
              ]
            },
            "system": "https://bonnie-fhir.healthit.gov/",
            "value": "633b3f9e0968f80122503cd8"
          }
        ],
        "active": true,
        "name": [
          {
            "use": "usual",
            "family": "DENOMPass",
            "given": [
              "Test5EDDMinutesImpactOnWksGest"
            ]
          }
        ],
        "gender": "female",
        "birthDate": "1970-02-01"
      },
      "request": {
        "method": "PUT",
        "url": "Patient/c07808ee-d675-44e8-93af-06a9e16e79ae"
      }
    },
    {
      "fullUrl": "https://madie.cms.gov/Observation/042c322b-60e6-49ba-869f-5bdb13366f9a",
      "resource": {
        "resourceType": "Observation",
        "id": "042c322b-60e6-49ba-869f-5bdb13366f9a",
        "meta": {
          "profile": [
            "http://hl7.org/fhir/us/qicore/StructureDefinition/qicore-observation"
          ]
        },
        "status": "final",
        "category": [
          {
            "coding": [
              {
                "system": "http://terminology.hl7.org/CodeSystem/observation-category",
                "code": "exam",
                "display": "exam",
                "userSelected": true
              }
            ]
          }
        ],
        "code": {
          "coding": [
            {
              "system": "http://loinc.org",
              "code": "93857-1"
            }
          ]
        },
        "subject": {
          "reference": "Patient/c07808ee-d675-44e8-93af-06a9e16e79ae"
        },
        "effectiveDateTime": "2024-02-01T08:00:00.000+00:00",
        "valueDateTime": "2024-02-01T08:00:00+00:00"
      },
      "request": {
        "method": "PUT",
        "url": "Observation/042c322b-60e6-49ba-869f-5bdb13366f9a"
      }
    },
    {
      "fullUrl": "https://madie.cms.gov/Observation/bfaec943-7ff7-44f5-b345-6f33caf95047",
      "resource": {
        "resourceType": "Observation",
        "id": "bfaec943-7ff7-44f5-b345-6f33caf95047",
        "meta": {
          "profile": [
            "http://hl7.org/fhir/us/qicore/StructureDefinition/qicore-observation"
          ]
        },
        "status": "final",
        "category": [
          {
            "coding": [
              {
                "system": "http://terminology.hl7.org/CodeSystem/observation-category",
                "code": "exam",
                "display": "exam",
                "userSelected": true
              }
            ]
          }
        ],
        "code": {
          "coding": [
            {
              "system": "http://loinc.org",
              "code": "11778-8"
            }
          ]
        },
        "subject": {
          "reference": "Patient/c07808ee-d675-44e8-93af-06a9e16e79ae"
        },
        "effectiveDateTime": "2023-04-13T08:01:00.000+00:00",
        "valueDateTime": "2024-02-02T00:01:00.000+00:00"
      },
      "request": {
        "method": "PUT",
        "url": "Observation/bfaec943-7ff7-44f5-b345-6f33caf95047"
      }
    },
    {
      "fullUrl": "https://madie.cms.gov/Encounter/9e0c1c37-9c17-4220-80ee-c1fab8fa1389",
      "resource": {
        "resourceType": "Encounter",
        "id": "9e0c1c37-9c17-4220-80ee-c1fab8fa1389",
        "meta": {
          "profile": [
            "http://hl7.org/fhir/us/qicore/StructureDefinition/qicore-encounter"
          ]
        },
        "status": "finished",
        "class": {
          "system": "http://terminology.hl7.org/CodeSystem/v3-ActCode",
          "code": "IMP",
          "display": "inpatient encounter"
        },
        "type": [
          {
            "coding": [
              {
                "system": "http://snomed.info/sct",
                "code": "183452005"
              }
            ]
          }
        ],
        "subject": {
          "reference": "Patient/c07808ee-d675-44e8-93af-06a9e16e79ae"
        },
        "period": {
          "start": "2024-01-30T08:00:00.000Z",
          "end": "2024-02-05T08:15:00.000Z"
        }
      },
      "request": {
        "method": "PUT",
        "url": "Encounter/9e0c1c37-9c17-4220-80ee-c1fab8fa1389"
      }
    },
    {
      "fullUrl": "https://madie.cms.gov/Procedure/58f41468-e6e2-4d02-a8b4-28edc429795a",
      "resource": {
        "resourceType": "Procedure",
        "id": "58f41468-e6e2-4d02-a8b4-28edc429795a",
        "meta": {
          "profile": [
            "http://hl7.org/fhir/us/qicore/StructureDefinition/qicore-procedure"
          ]
        },
        "extension": [
          {
            "url": "http://hl7.org/fhir/us/qicore/StructureDefinition/qicore-recorded",
            "valueDateTime": "2013-04-05T09:35:00-04:00"
          }
        ],
        "status": "completed",
        "code": {
          "coding": [
            {
              "system": "http://snomed.info/sct",
              "code": "10745001"
            }
          ]
        },
        "subject": {
          "reference": "Patient/c07808ee-d675-44e8-93af-06a9e16e79ae"
        },
        "performedPeriod": {
          "start": "2024-02-01T08:00:00.000Z"
        }
      },
      "request": {
        "method": "PUT",
        "url": "Procedure/58f41468-e6e2-4d02-a8b4-28edc429795a"
      }
    },
    {
      "fullUrl": "https://madie.cms.gov/Coverage/e71a2a79-d6d4-4529-a0d3-024a8b9510d5",
      "resource": {
        "resourceType": "Coverage",
        "id": "e71a2a79-d6d4-4529-a0d3-024a8b9510d5",
        "meta": {
          "profile": [
            "http://hl7.org/fhir/us/qicore/StructureDefinition/qicore-coverage"
          ]
        },
        "status": "active",
        "beneficiary": {
          "reference": "Patient/c07808ee-d675-44e8-93af-06a9e16e79ae"
        },
        "payor": [
          {
            "reference": "Organization/091dcb3a-bd63-4e41-af44-532b2a7521f4"
          }
        ]
      },
      "request": {
        "method": "PUT",
        "url": "Coverage/e71a2a79-d6d4-4529-a0d3-024a8b9510d5"
      }
    },
    {
      "fullUrl": "https://madie.cms.gov/Organization/091dcb3a-bd63-4e41-af44-532b2a7521f4",
      "resource": {
        "resourceType": "Organization",
        "id": "091dcb3a-bd63-4e41-af44-532b2a7521f4",
        "meta": {
          "profile": [
            "http://hl7.org/fhir/us/qicore/StructureDefinition/qicore-organization"
          ]
        },
        "identifier": [
          {
            "use": "temp",
            "system": "urn:oid:2.16.840.1.113883.4.4",
            "value": "21-3259825"
          }
        ],
        "active": true,
        "type": [
          {
            "coding": [
              {
                "system": "http://terminology.hl7.org/CodeSystem/organization-type",
                "code": "pay",
                "display": "Payer"
              }
            ]
          }
        ],
        "name": "Blue Cross Blue Shield of Texas",
        "telecom": [
          {
            "system": "phone",
            "value": "(+1) 972-766-6900"
          }
        ],
        "address": [
          {
            "use": "billing",
            "type": "postal",
            "line": [
              "P.O. Box 660044"
            ],
            "city": "Dallas",
            "state": "TX",
            "postalCode": "75266-0044",
            "country": "USA"
          }
        ]
      },
      "request": {
        "method": "PUT",
        "url": "Organization/091dcb3a-bd63-4e41-af44-532b2a7521f4"
      }
    },
    {
      "fullUrl": "https://madie.cms.gov/Practitioner/36a48ccb-2b3f-45c9-af52-3f3e7174b884",
      "resource": {
        "resourceType": "Practitioner",
        "id": "36a48ccb-2b3f-45c9-af52-3f3e7174b884",
        "identifier": [
          {
            "system": "http://hl7.org/fhir/sid/us-npi",
            "value": "123456"
          }
        ],
        "name": [
          {
            "family": "Evil",
            "prefix": [
              "Dr"
            ]
          }
        ]
      },
      "request": {
        "method": "PUT",
        "url": "Practitioner/36a48ccb-2b3f-45c9-af52-3f3e7174b884"
      }
    },
    {
      "fullUrl": "https://madie.cms.gov/MeasureReport/829f41f1-b0f2-4f36-9432-f801b02dbc36",
      "resource": {
        "resourceType": "MeasureReport",
        "id": "829f41f1-b0f2-4f36-9432-f801b02dbc36",
        "meta": {
          "profile": [
            "http://hl7.org/fhir/us/cqfmeasures/StructureDefinition/test-case-cqfm"
          ]
        },
        "contained": [
          {
            "resourceType": "Parameters",
            "id": "e475e5b5-4105-456b-8cba-91029dbc109d-parameters",
            "parameter": [
              {
                "name": "subject",
                "valueString": "c07808ee-d675-44e8-93af-06a9e16e79ae"
              }
            ]
          }
        ],
        "extension": [
          {
            "url": "http://hl7.org/fhir/us/cqfmeasures/StructureDefinition/cqfm-inputParameters",
            "valueReference": {
              "reference": "#e475e5b5-4105-456b-8cba-91029dbc109d-parameters"
            }
          },
          {
            "url": "http://hl7.org/fhir/us/cqfmeasures/StructureDefinition/cqfm-testCaseDescription",
            "valueMarkdown": "\"Delivery date = 2/1/2012 @0800.  EDD = 2/2/2012\n @12:01 am.  Weeks gestation = 39.  To test the impact on calculated weeks gestation, I temporarily changed the logic of this definition:  \"Del Enc with CGA Greater than or Equal to 20 Weeks\" to = 40.\n"
          }
        ],
        "modifierExtension": [
          {
            "url": "http://hl7.org/fhir/us/cqfmeasures/StructureDefinition/cqfm-isTestCase",
            "valueBoolean": true
          }
        ],
        "status": "complete",
        "type": "individual",
        "measure": "https://madie.cms.gov/Measure/SevereObstetricComplicationsFHIR",
        "period": {
          "start": "2024-01-01",
          "end": "2024-12-31"
        },
        "group": [
          {
            "population": [
              {
                "code": {
                  "coding": [
                    {
                      "system": "http://terminology.hl7.org/CodeSystem/measure-population",
                      "code": "initial-population",
                      "display": "Initial Population"
                    }
                  ]
                },
                "count": 1
              },
              {
                "code": {
                  "coding": [
                    {
                      "system": "http://terminology.hl7.org/CodeSystem/measure-population",
                      "code": "denominator",
                      "display": "Denominator"
                    }
                  ]
                },
                "count": 1
              },
              {
                "code": {
                  "coding": [
                    {
                      "system": "http://terminology.hl7.org/CodeSystem/measure-population",
                      "code": "denominator-exclusion",
                      "display": "Denominator Exclusion"
                    }
                  ]
                },
                "count": 0
              },
              {
                "code": {
                  "coding": [
                    {
                      "system": "http://terminology.hl7.org/CodeSystem/measure-population",
                      "code": "numerator",
                      "display": "Numerator"
                    }
                  ]
                },
                "count": 0
              }
            ]
          }
        ],
        "evaluatedResource": [
          {
            "reference": "Patient/c07808ee-d675-44e8-93af-06a9e16e79ae"
          },
          {
            "reference": "Observation/042c322b-60e6-49ba-869f-5bdb13366f9a"
          },
          {
            "reference": "Observation/bfaec943-7ff7-44f5-b345-6f33caf95047"
          },
          {
            "reference": "Encounter/9e0c1c37-9c17-4220-80ee-c1fab8fa1389"
          },
          {
            "reference": "Procedure/58f41468-e6e2-4d02-a8b4-28edc429795a"
          },
          {
            "reference": "Coverage/e71a2a79-d6d4-4529-a0d3-024a8b9510d5"
          },
          {
            "reference": "Organization/091dcb3a-bd63-4e41-af44-532b2a7521f4"
          },
          {
            "reference": "Practitioner/36a48ccb-2b3f-45c9-af52-3f3e7174b884"
          }
        ]
      },
      "request": {
        "method": "PUT",
        "url": "MeasureReport/829f41f1-b0f2-4f36-9432-f801b02dbc36"
      }
    }
  ]
}