{
  "resourceType": "Bundle",
  "id": "63594c7a6aee9629c82981df",
  "type": "transaction",
  "entry": [
    {
      "fullUrl": "https://madie.cms.gov/Patient/766ee143-df83-478a-afb7-8f1e71f14e71",
      "resource": {
        "resourceType": "Patient",
        "id": "766ee143-df83-478a-afb7-8f1e71f14e71",
        "meta": {
          "profile": [
            "http://hl7.org/fhir/us/qicore/StructureDefinition/qicore-patient"
          ]
        },
        "text": {
          "status": "generated",
          "div": "<div xmlns=\"http://www.w3.org/1999/xhtml\"><div class=\"hapiHeaderText\">Risk_PlacentalAbruption <b>RISKPass </b></div><table class=\"hapiPropertyTable\"><tbody><tr><td>Date of birth</td><td><span>01 February 2004</span></td></tr></tbody></table></div>"
        },
        "extension": [
          {
            "url": "http://hl7.org/fhir/us/core/StructureDefinition/us-core-race",
            "extension": [
              {
                "url": "ombCategory",
                "valueCoding": {
                  "system": "urn:oid:2.16.840.1.113883.6.238",
                  "code": "1002-5",
                  "display": "American Indian or Alaska Native",
                  "userSelected": true
                }
              },
              {
                "url": "text",
                "valueString": "American Indian or Alaska Native"
              }
            ]
          },
          {
            "url": "http://hl7.org/fhir/us/core/StructureDefinition/us-core-ethnicity",
            "extension": [
              {
                "url": "ombCategory",
                "valueCoding": {
                  "system": "urn:oid:2.16.840.1.113883.6.238",
                  "code": "2135-2",
                  "display": "Hispanic or Latino",
                  "userSelected": true
                }
              },
              {
                "url": "text",
                "valueString": "Hispanic or Latino"
              }
            ]
          }
        ],
        "identifier": [
          {
            "type": {
              "coding": [
                {
                  "system": "http://terminology.hl7.org/CodeSystem/v2-0203",
                  "code": "MR"
                }
              ]
            },
            "system": "https://bonnie-fhir.healthit.gov/",
            "value": "63594c7a6aee9629c82981df"
          }
        ],
        "active": true,
        "name": [
          {
            "use": "usual",
            "family": "RiskPass",
            "given": [
              "Risk_PlacentalAbruption"
            ]
          }
        ],
        "gender": "female",
        "birthDate": "2004-02-01"
      },
      "request": {
        "method": "PUT",
        "url": "Patient/766ee143-df83-478a-afb7-8f1e71f14e71"
      }
    },
    {
      "fullUrl": "https://madie.cms.gov/Observation/adc1c3de-5d16-4cc9-81f1-c952c6236a4b",
      "resource": {
        "resourceType": "Observation",
        "id": "adc1c3de-5d16-4cc9-81f1-c952c6236a4b",
        "meta": {
          "profile": [
            "http://hl7.org/fhir/us/qicore/StructureDefinition/qicore-observation"
          ]
        },
        "status": "final",
        "category": [
          {
            "coding": [
              {
                "system": "http://terminology.hl7.org/CodeSystem/observation-category",
                "code": "exam",
                "display": "exam",
                "userSelected": true
              }
            ]
          }
        ],
        "code": {
          "coding": [
            {
              "system": "http://loinc.org",
              "code": "93857-1"
            }
          ]
        },
        "subject": {
          "reference": "Patient/766ee143-df83-478a-afb7-8f1e71f14e71"
        },
        "effectiveDateTime": "2024-02-01T08:00:00.000+00:00",
        "valueDateTime": "2024-02-01T08:00:00+00:00"
      },
      "request": {
        "method": "PUT",
        "url": "Observation/adc1c3de-5d16-4cc9-81f1-c952c6236a4b"
      }
    },
    {
      "fullUrl": "https://madie.cms.gov/Observation/3b50d490-3f8e-40f5-b6f6-80e61cef5d1b",
      "resource": {
        "resourceType": "Observation",
        "id": "3b50d490-3f8e-40f5-b6f6-80e61cef5d1b",
        "meta": {
          "profile": [
            "http://hl7.org/fhir/us/qicore/StructureDefinition/qicore-observation"
          ]
        },
        "status": "final",
        "category": [
          {
            "coding": [
              {
                "system": "http://terminology.hl7.org/CodeSystem/observation-category",
                "code": "exam",
                "display": "exam",
                "userSelected": true
              }
            ]
          }
        ],
        "code": {
          "coding": [
            {
              "system": "http://loinc.org",
              "code": "11778-8"
            }
          ]
        },
        "subject": {
          "reference": "Patient/766ee143-df83-478a-afb7-8f1e71f14e71"
        },
        "effectiveDateTime": "2024-02-01T08:00:00.000+00:00",
        "valueDateTime": "2024-02-01T00:00:00.000+00:00"
      },
      "request": {
        "method": "PUT",
        "url": "Observation/3b50d490-3f8e-40f5-b6f6-80e61cef5d1b"
      }
    },
    {
      "fullUrl": "https://madie.cms.gov/Encounter/0e549abe-ca0a-4589-9703-966c199a1dfd",
      "resource": {
        "resourceType": "Encounter",
        "id": "0e549abe-ca0a-4589-9703-966c199a1dfd",
        "meta": {
          "profile": [
            "http://hl7.org/fhir/us/qicore/StructureDefinition/qicore-encounter"
          ]
        },
        "status": "finished",
        "class": {
          "system": "http://terminology.hl7.org/CodeSystem/v3-ActCode",
          "code": "IMP",
          "display": "inpatient encounter"
        },
        "type": [
          {
            "coding": [
              {
                "system": "http://snomed.info/sct",
                "code": "183452005"
              }
            ]
          }
        ],
        "subject": {
          "reference": "Patient/766ee143-df83-478a-afb7-8f1e71f14e71"
        },
        "period": {
          "start": "2024-02-01T08:00:00.000Z",
          "end": "2024-02-05T08:15:00.000Z"
        },
        "diagnosis": [
          {
            "extension": [
              {
                "url": "http://hl7.org/fhir/us/qicore/StructureDefinition/qicore-encounter-diagnosisPresentOnAdmission",
                "valueCodeableConcept": {
                  "coding": [
                    {
                      "system": "https://www.cms.gov/Medicare/Medicare-Fee-for-Service-Payment/HospitalAcqCond/Coding",
                      "code": "Y"
                    }
                  ]
                }
              }
            ],
            "condition": {
              "reference": "Condition/ac5ebde3-11ac-4333-b870-a46e86007809"
            }
          },
          {
            "extension": [
              {
                "url": "http://hl7.org/fhir/us/qicore/StructureDefinition/qicore-encounter-diagnosisPresentOnAdmission",
                "valueCodeableConcept": {
                  "coding": [
                    {
                      "system": "https://www.cms.gov/Medicare/Medicare-Fee-for-Service-Payment/HospitalAcqCond/Coding",
                      "code": "N"
                    }
                  ]
                }
              }
            ],
            "condition": {
              "reference": "Condition/3bbd6881-1d13-44b5-a87d-cf695b15e5bc"
            }
          }
        ]
      },
      "request": {
        "method": "PUT",
        "url": "Encounter/0e549abe-ca0a-4589-9703-966c199a1dfd"
      }
    },
    {
      "fullUrl": "https://madie.cms.gov/Procedure/f51a8b92-76b0-41b1-8862-a61bb8893ed2",
      "resource": {
        "resourceType": "Procedure",
        "id": "f51a8b92-76b0-41b1-8862-a61bb8893ed2",
        "meta": {
          "profile": [
            "http://hl7.org/fhir/us/qicore/StructureDefinition/qicore-procedure"
          ]
        },
        "extension": [
          {
            "url": "http://hl7.org/fhir/us/qicore/StructureDefinition/qicore-recorded",
            "valueDateTime": "2013-04-05T09:35:00-04:00"
          }
        ],
        "status": "completed",
        "code": {
          "coding": [
            {
              "system": "http://snomed.info/sct",
              "code": "10745001"
            }
          ]
        },
        "subject": {
          "reference": "Patient/766ee143-df83-478a-afb7-8f1e71f14e71"
        },
        "performedDateTime": "2024-02-01T08:00:00.000+00:00"
      },
      "request": {
        "method": "PUT",
        "url": "Procedure/f51a8b92-76b0-41b1-8862-a61bb8893ed2"
      }
    },
    {
      "fullUrl": "https://madie.cms.gov/Condition/3bbd6881-1d13-44b5-a87d-cf695b15e5bc",
      "resource": {
        "resourceType": "Condition",
        "id": "3bbd6881-1d13-44b5-a87d-cf695b15e5bc",
        "meta": {
          "profile": [
            "http://hl7.org/fhir/us/qicore/StructureDefinition/qicore-condition"
          ]
        },
        "category": [
          {
            "coding": [
              {
                "system": "http://terminology.hl7.org/CodeSystem/condition-category",
                "code": "encounter-diagnosis",
                "display": "Encounter Diagnosis"
              }
            ]
          }
        ],
        "code": {
          "coding": [
            {
              "system": "http://hl7.org/fhir/sid/icd-10-cm",
              "version": "2023",
              "code": "A32.7",
              "display": "Listerial sepsis",
              "userSelected": true
            }
          ]
        },
        "subject": {
          "reference": "Patient/766ee143-df83-478a-afb7-8f1e71f14e71"
        },
        "recordedDate": "2024-10-26T08:00:00.000+00:00"
      },
      "request": {
        "method": "PUT",
        "url": "Condition/3bbd6881-1d13-44b5-a87d-cf695b15e5bc"
      }
    },
    {
      "fullUrl": "https://madie.cms.gov/Condition/ac5ebde3-11ac-4333-b870-a46e86007809",
      "resource": {
        "resourceType": "Condition",
        "id": "ac5ebde3-11ac-4333-b870-a46e86007809",
        "meta": {
          "profile": [
            "http://hl7.org/fhir/us/qicore/StructureDefinition/qicore-condition"
          ]
        },
        "category": [
          {
            "coding": [
              {
                "system": "http://terminology.hl7.org/CodeSystem/condition-category",
                "code": "encounter-diagnosis",
                "display": "Encounter Diagnosis"
              }
            ]
          }
        ],
        "code": {
          "coding": [
            {
              "system": "http://hl7.org/fhir/sid/icd-10-cm",
              "version": "2023",
              "code": "O45.001",
              "display": "Placental Abruption",
              "userSelected": true
            }
          ]
        },
        "subject": {
          "reference": "Patient/766ee143-df83-478a-afb7-8f1e71f14e71"
        },
        "recordedDate": "2024-10-26T08:00:00.000+00:00"
      },
      "request": {
        "method": "PUT",
        "url": "Condition/ac5ebde3-11ac-4333-b870-a46e86007809"
      }
    },
    {
      "fullUrl": "https://madie.cms.gov/MeasureReport/99e735ae-677b-4769-8cbb-c4a9cd96e4f1",
      "resource": {
        "resourceType": "MeasureReport",
        "id": "99e735ae-677b-4769-8cbb-c4a9cd96e4f1",
        "meta": {
          "profile": [
            "http://hl7.org/fhir/us/cqfmeasures/StructureDefinition/test-case-cqfm"
          ]
        },
        "contained": [
          {
            "resourceType": "Parameters",
            "id": "095528f5-5e29-4a92-a4a2-470ae32fad91-parameters",
            "parameter": [
              {
                "name": "subject",
                "valueString": "766ee143-df83-478a-afb7-8f1e71f14e71"
              }
            ]
          }
        ],
        "extension": [
          {
            "url": "http://hl7.org/fhir/us/cqfmeasures/StructureDefinition/cqfm-inputParameters",
            "valueReference": {
              "reference": "#095528f5-5e29-4a92-a4a2-470ae32fad91-parameters"
            }
          },
          {
            "url": "http://hl7.org/fhir/us/cqfmeasures/StructureDefinition/cqfm-testCaseDescription",
            "valueMarkdown": " Risk variable of placental abruption.\n\n"
          }
        ],
        "modifierExtension": [
          {
            "url": "http://hl7.org/fhir/us/cqfmeasures/StructureDefinition/cqfm-isTestCase",
            "valueBoolean": true
          }
        ],
        "status": "complete",
        "type": "individual",
        "measure": "https://madie.cms.gov/Measure/SevereObstetricComplicationsFHIR",
        "period": {
          "start": "2024-01-01",
          "end": "2024-12-31"
        },
        "group": [
          {
            "population": [
              {
                "code": {
                  "coding": [
                    {
                      "system": "http://terminology.hl7.org/CodeSystem/measure-population",
                      "code": "initial-population",
                      "display": "Initial Population"
                    }
                  ]
                },
                "count": 1
              },
              {
                "code": {
                  "coding": [
                    {
                      "system": "http://terminology.hl7.org/CodeSystem/measure-population",
                      "code": "denominator",
                      "display": "Denominator"
                    }
                  ]
                },
                "count": 1
              },
              {
                "code": {
                  "coding": [
                    {
                      "system": "http://terminology.hl7.org/CodeSystem/measure-population",
                      "code": "denominator-exclusion",
                      "display": "Denominator Exclusion"
                    }
                  ]
                },
                "count": 0
              },
              {
                "code": {
                  "coding": [
                    {
                      "system": "http://terminology.hl7.org/CodeSystem/measure-population",
                      "code": "numerator",
                      "display": "Numerator"
                    }
                  ]
                },
                "count": 1
              }
            ]
          }
        ],
        "evaluatedResource": [
          {
            "reference": "Patient/766ee143-df83-478a-afb7-8f1e71f14e71"
          },
          {
            "reference": "Observation/adc1c3de-5d16-4cc9-81f1-c952c6236a4b"
          },
          {
            "reference": "Observation/3b50d490-3f8e-40f5-b6f6-80e61cef5d1b"
          },
          {
            "reference": "Encounter/0e549abe-ca0a-4589-9703-966c199a1dfd"
          },
          {
            "reference": "Procedure/f51a8b92-76b0-41b1-8862-a61bb8893ed2"
          },
          {
            "reference": "Condition/3bbd6881-1d13-44b5-a87d-cf695b15e5bc"
          },
          {
            "reference": "Condition/ac5ebde3-11ac-4333-b870-a46e86007809"
          }
        ]
      },
      "request": {
        "method": "PUT",
        "url": "MeasureReport/99e735ae-677b-4769-8cbb-c4a9cd96e4f1"
      }
    }
  ]
}