{
  "resourceType": "Bundle",
  "id": "6129131402c62a011f2e5870",
  "type": "transaction",
  "entry": [
    {
      "fullUrl": "https://madie.cms.gov/Patient/dd3cd454-e42f-4132-abc4-555a934cab95",
      "resource": {
        "resourceType": "Patient",
        "id": "dd3cd454-e42f-4132-abc4-555a934cab95",
        "meta": {
          "profile": [
            "http://hl7.org/fhir/us/qicore/StructureDefinition/qicore-patient"
          ]
        },
        "text": {
          "status": "generated",
          "div": "<div xmlns=\"http://www.w3.org/1999/xhtml\"><div class=\"hapiHeaderText\">NonEleInpEncounter_AgeGT18LOSLT120 <b>IPPASS </b></div><table class=\"hapiPropertyTable\"><tbody><tr><td>Identifier</td><td>98bbafa0f3f0ba2f58ea7c825e2454d6</td></tr><tr><td>Date of birth</td><td><span>20 August 1993</span></td></tr></tbody></table></div>"
        },
        "extension": [
          {
            "url": "http://hl7.org/fhir/us/core/StructureDefinition/us-core-race",
            "extension": [
              {
                "url": "ombCategory",
                "valueCoding": {
                  "system": "urn:oid:2.16.840.1.113883.6.238",
                  "code": "1002-5",
                  "display": "American Indian or Alaska Native",
                  "userSelected": true
                }
              },
              {
                "url": "text",
                "valueString": "American Indian or Alaska Native"
              },
              {
                "url": "detailed",
                "valueCoding": {
                  "system": "urn:oid:2.16.840.1.113883.6.238",
                  "code": "1653-5",
                  "display": "Tohono O'Odham"
                }
              }
            ]
          },
          {
            "url": "http://hl7.org/fhir/us/core/StructureDefinition/us-core-ethnicity",
            "extension": [
              {
                "url": "ombCategory",
                "valueCoding": {
                  "system": "urn:oid:2.16.840.1.113883.6.238",
                  "code": "2135-2",
                  "display": "Hispanic or Latino",
                  "userSelected": true
                }
              },
              {
                "url": "text",
                "valueString": "Not Hispanic or Latino"
              },
              {
                "url": "detailed",
                "valueCoding": {
                  "system": "urn:oid:2.16.840.1.113883.6.238",
                  "code": "2153-5",
                  "display": "Mexican American Indian"
                }
              }
            ]
          }
        ],
        "identifier": [
          {
            "type": {
              "coding": [
                {
                  "system": "http://terminology.hl7.org/CodeSystem/v2-0203",
                  "code": "MR"
                }
              ]
            },
            "system": "https://bonnie-fhir.healthit.gov/",
            "value": "6129131402c62a011f2e5870"
          }
        ],
        "active": true,
        "name": [
          {
            "use": "usual",
            "family": "IPPass",
            "given": [
              "NonEleInpEncounter_AgeGT18LOSLT120"
            ]
          }
        ],
        "gender": "male",
        "birthDate": "2002-08-20"
      },
      "request": {
        "method": "PUT",
        "url": "Patient/dd3cd454-e42f-4132-abc4-555a934cab95"
      }
    },
    {
      "fullUrl": "https://madie.cms.gov/Encounter/773e619b-fd1e-47b1-98c1-574bac31a56d",
      "resource": {
        "resourceType": "Encounter",
        "id": "773e619b-fd1e-47b1-98c1-574bac31a56d",
        "meta": {
          "profile": [
            "http://hl7.org/fhir/us/qicore/StructureDefinition/qicore-encounter"
          ]
        },
        "status": "finished",
        "class": {
          "system": "http://terminology.hl7.org/CodeSystem/v3-ActCode",
          "code": "IMP",
          "display": "inpatient encounter",
          "userSelected": true
        },
        "type": [
          {
            "coding": [
              {
                "system": "http://snomed.info/sct",
                "code": "32485007"
              }
            ]
          }
        ],
        "subject": {
          "reference": "Patient/dd3cd454-e42f-4132-abc4-555a934cab95"
        },
        "period": {
          "start": "2025-08-21T00:00:00.000+00:00",
          "end": "2025-12-18T23:59:00.000+00:00"
        },
        "length": {
          "value": 119,
          "unit": "days"
        },
        "diagnosis": [
          {
            "condition": {
              "reference": "Condition/367df71e-12b2-4b7f-9b6e-772a603619d7"
            },
            "use": {
              "coding": [
                {
                  "system": "http://terminology.hl7.org/CodeSystem/diagnosis-role",
                  "code": "billing",
                  "display": "Billing"
                }
              ]
            },
            "rank": 1
          }
        ]
      },
      "request": {
        "method": "PUT",
        "url": "Encounter/773e619b-fd1e-47b1-98c1-574bac31a56d"
      }
    },
    {
      "fullUrl": "https://madie.cms.gov/Condition/367df71e-12b2-4b7f-9b6e-772a603619d7",
      "resource": {
        "resourceType": "Condition",
        "id": "367df71e-12b2-4b7f-9b6e-772a603619d7",
        "meta": {
          "profile": [
            "http://hl7.org/fhir/us/qicore/StructureDefinition/qicore-condition"
          ]
        },
        "clinicalStatus": {
          "coding": [
            {
              "system": "http://terminology.hl7.org/CodeSystem/condition-clinical",
              "code": "active"
            }
          ]
        },
        "verificationStatus": {
          "coding": [
            {
              "system": "http://terminology.hl7.org/CodeSystem/condition-ver-status",
              "code": "confirmed"
            }
          ]
        },
        "category": [
          {
            "coding": [
              {
                "system": "http://terminology.hl7.org/CodeSystem/condition-category",
                "code": "encounter-diagnosis",
                "display": "Encounter Diagnosis"
              }
            ]
          }
        ],
        "code": {
          "coding": [
            {
              "system": "http://snomed.info/sct",
              "version": "2020-09",
              "code": "422504002",
              "display": "Ischemic Stroke (disorder)",
              "userSelected": true
            }
          ]
        },
        "subject": {
          "reference": "Patient/dd3cd454-e42f-4132-abc4-555a934cab95"
        },
        "recordedDate": "2025-07-15T08:00:00.000+00:00"
      },
      "request": {
        "method": "PUT",
        "url": "Condition/367df71e-12b2-4b7f-9b6e-772a603619d7"
      }
    },
    {
      "fullUrl": "https://madie.cms.gov/Coverage/501bb566-0841-4db5-b121-91d987f60485",
      "resource": {
        "resourceType": "Coverage",
        "id": "501bb566-0841-4db5-b121-91d987f60485",
        "meta": {
          "profile": [
            "http://hl7.org/fhir/us/qicore/StructureDefinition/qicore-coverage"
          ]
        },
        "status": "active",
        "beneficiary": {
          "reference": "Patient/dd3cd454-e42f-4132-abc4-555a934cab95"
        },
        "payor": [
          {
            "reference": "Organization/4458b7a6-fe56-4527-8f0d-cb2a7eeeaa14"
          }
        ]
      },
      "request": {
        "method": "PUT",
        "url": "Coverage/501bb566-0841-4db5-b121-91d987f60485"
      }
    },
    {
      "fullUrl": "https://madie.cms.gov/Organization/4458b7a6-fe56-4527-8f0d-cb2a7eeeaa14",
      "resource": {
        "resourceType": "Organization",
        "id": "4458b7a6-fe56-4527-8f0d-cb2a7eeeaa14",
        "meta": {
          "profile": [
            "http://hl7.org/fhir/us/qicore/StructureDefinition/qicore-organization"
          ]
        },
        "identifier": [
          {
            "use": "temp",
            "system": "urn:oid:2.16.840.1.113883.4.4",
            "value": "21-3259825"
          }
        ],
        "active": true,
        "type": [
          {
            "coding": [
              {
                "system": "http://terminology.hl7.org/CodeSystem/organization-type",
                "code": "pay",
                "display": "Payer"
              }
            ]
          }
        ],
        "name": "Blue Cross Blue Shield of Texas",
        "telecom": [
          {
            "system": "phone",
            "value": "(+1) 972-766-6900"
          }
        ],
        "address": [
          {
            "use": "billing",
            "type": "postal",
            "line": [
              "P.O. Box 660044"
            ],
            "city": "Dallas",
            "state": "TX",
            "postalCode": "75266-0044",
            "country": "USA"
          }
        ]
      },
      "request": {
        "method": "PUT",
        "url": "Organization/4458b7a6-fe56-4527-8f0d-cb2a7eeeaa14"
      }
    },
    {
      "fullUrl": "https://madie.cms.gov/MeasureReport/1aee96f5-490f-4d02-b1f4-6f782ec50e30",
      "resource": {
        "resourceType": "MeasureReport",
        "id": "1aee96f5-490f-4d02-b1f4-6f782ec50e30",
        "meta": {
          "profile": [
            "http://hl7.org/fhir/us/cqfmeasures/StructureDefinition/test-case-cqfm"
          ]
        },
        "contained": [
          {
            "resourceType": "Parameters",
            "id": "f60f620a-2672-4250-908c-94b3655295ac-parameters",
            "parameter": [
              {
                "name": "subject",
                "valueString": "dd3cd454-e42f-4132-abc4-555a934cab95"
              }
            ]
          }
        ],
        "extension": [
          {
            "url": "http://hl7.org/fhir/us/cqfmeasures/StructureDefinition/cqfm-inputParameters",
            "valueReference": {
              "reference": "#f60f620a-2672-4250-908c-94b3655295ac-parameters"
            }
          },
          {
            "url": "http://hl7.org/fhir/us/cqfmeasures/StructureDefinition/cqfm-testCaseDescription",
            "valueMarkdown": "Patient is greater than 18 with Non-Elective Inpatient Encounter (LOS 119 days) with principal diagnosis of ischemic stroke ends during MP\n"
          }
        ],
        "modifierExtension": [
          {
            "url": "http://hl7.org/fhir/us/cqfmeasures/StructureDefinition/cqfm-isTestCase",
            "valueBoolean": true
          }
        ],
        "status": "complete",
        "type": "individual",
        "measure": "https://madie.cms.gov/Measure/DischargedonAntithromboticTherapyFHIR",
        "period": {
          "start": "2025-01-01",
          "end": "2025-12-31"
        },
        "group": [
          {
            "population": [
              {
                "code": {
                  "coding": [
                    {
                      "system": "http://terminology.hl7.org/CodeSystem/measure-population",
                      "code": "initial-population",
                      "display": "Initial Population"
                    }
                  ]
                },
                "count": 1
              },
              {
                "code": {
                  "coding": [
                    {
                      "system": "http://terminology.hl7.org/CodeSystem/measure-population",
                      "code": "denominator",
                      "display": "Denominator"
                    }
                  ]
                },
                "count": 1
              },
              {
                "code": {
                  "coding": [
                    {
                      "system": "http://terminology.hl7.org/CodeSystem/measure-population",
                      "code": "denominator-exclusion",
                      "display": "Denominator Exclusion"
                    }
                  ]
                },
                "count": 0
              },
              {
                "code": {
                  "coding": [
                    {
                      "system": "http://terminology.hl7.org/CodeSystem/measure-population",
                      "code": "numerator",
                      "display": "Numerator"
                    }
                  ]
                },
                "count": 0
              },
              {
                "code": {
                  "coding": [
                    {
                      "system": "http://terminology.hl7.org/CodeSystem/measure-population",
                      "code": "denominator-exception",
                      "display": "Denominator Exception"
                    }
                  ]
                },
                "count": 0
              }
            ]
          }
        ],
        "evaluatedResource": [
          {
            "reference": "Patient/dd3cd454-e42f-4132-abc4-555a934cab95"
          },
          {
            "reference": "Encounter/773e619b-fd1e-47b1-98c1-574bac31a56d"
          },
          {
            "reference": "Condition/367df71e-12b2-4b7f-9b6e-772a603619d7"
          },
          {
            "reference": "Coverage/501bb566-0841-4db5-b121-91d987f60485"
          },
          {
            "reference": "Organization/4458b7a6-fe56-4527-8f0d-cb2a7eeeaa14"
          }
        ]
      },
      "request": {
        "method": "PUT",
        "url": "MeasureReport/1aee96f5-490f-4d02-b1f4-6f782ec50e30"
      }
    }
  ]
}