{
  "resourceType": "Bundle",
  "id": "ScreAtriRefNoasseNodxNocp2",
  "type": "transaction",
  "entry": [
    {
      "fullUrl": "https://madie.cms.gov/Patient/70c9f76c-18d8-42aa-a8fe-28bf143808e4",
      "resource": {
        "resourceType": "Patient",
        "id": "70c9f76c-18d8-42aa-a8fe-28bf143808e4",
        "meta": {
          "profile": [
            "http://hl7.org/fhir/us/qicore/StructureDefinition/qicore-patient"
          ]
        },
        "text": {
          "status": "generated",
          "div": "<div xmlns=\"http://www.w3.org/1999/xhtml\"><div class=\"hapiHeaderText\">ScreAtriRefNoasseNodxNocp2, , <b> </b></div><table class=\"hapiPropertyTable\"><tbody><tr><td>Identifier</td><td>ScreAtriRefNoasseNodxNocp2</td></tr><tr><td>Date of birth</td><td><span>14 May 1950</span></td></tr></tbody></table></div>"
        },
        "extension": [
          {
            "url": "http://hl7.org/fhir/us/core/StructureDefinition/us-core-race",
            "extension": [
              {
                "url": "ombCategory",
                "valueCoding": {
                  "system": "urn:oid:2.16.840.1.113883.6.238",
                  "code": "2076-8",
                  "display": "Native Hawaiian or Other Pacific Islander",
                  "userSelected": true
                }
              },
              {
                "url": "text",
                "valueString": "Native Hawaiian or Other Pacific Islander"
              }
            ]
          },
          {
            "url": "http://hl7.org/fhir/us/core/StructureDefinition/us-core-ethnicity",
            "extension": [
              {
                "url": "ombCategory",
                "valueCoding": {
                  "system": "urn:oid:2.16.840.1.113883.6.238",
                  "code": "2186-5",
                  "display": "Not Hispanic or Latino",
                  "userSelected": true
                }
              },
              {
                "url": "text",
                "valueString": "Not Hispanic or Latino"
              }
            ]
          }
        ],
        "identifier": [
          {
            "type": {
              "coding": [
                {
                  "system": "http://terminology.hl7.org/CodeSystem/v2-0203",
                  "code": "MR"
                }
              ]
            },
            "system": "https://madie.cms.gov/",
            "value": "ScreAtriRefNoasseNodxNocp2"
          }
        ],
        "active": true,
        "name": [
          {
            "use": "usual",
            "text": "ScreAtriRefNoasseNodxNocp2",
            "family": "OCCURPass2",
            "given": [
              "ScreAtriRefNoasseNodxNocp2DENOMPass2"
            ]
          }
        ],
        "gender": "male",
        "birthDate": "1953-01-01",
        "address": [
          {
            "text": "ScreAtriRefNoasseNodxNocp2, Screened Not at risk Assessed Severely Malnourished Diagnosed Care Plan, ID=ScreAtriRefNoasseNodxNocp2, DOB: 14 May 1950"
          }
        ]
      },
      "request": {
        "method": "PUT",
        "url": "Patient/70c9f76c-18d8-42aa-a8fe-28bf143808e4"
      }
    },
    {
      "fullUrl": "https://madie.cms.gov/Encounter/4f5f2654-b077-4f59-b133-2f0007552ba2",
      "resource": {
        "resourceType": "Encounter",
        "id": "4f5f2654-b077-4f59-b133-2f0007552ba2",
        "meta": {
          "profile": [
            "http://hl7.org/fhir/us/qicore/StructureDefinition/qicore-encounter"
          ]
        },
        "status": "finished",
        "class": {
          "system": "http://terminology.hl7.org/CodeSystem/v3-ActCode",
          "code": "IMP",
          "display": "inpatient encounter"
        },
        "type": [
          {
            "coding": [
              {
                "system": "http://snomed.info/sct",
                "code": "183452005"
              }
            ]
          }
        ],
        "subject": {
          "reference": "Patient/70c9f76c-18d8-42aa-a8fe-28bf143808e4"
        },
        "period": {
          "start": "2026-02-01T08:00:00.000Z",
          "end": "2026-02-07T08:15:00.000Z"
        }
      },
      "request": {
        "method": "PUT",
        "url": "Encounter/4f5f2654-b077-4f59-b133-2f0007552ba2"
      }
    },
    {
      "fullUrl": "https://madie.cms.gov/Observation/6e8b8b10-14e6-4e54-836e-367d0346ef0c",
      "resource": {
        "resourceType": "Observation",
        "id": "6e8b8b10-14e6-4e54-836e-367d0346ef0c",
        "meta": {
          "profile": [
            "http://hl7.org/fhir/us/qicore/StructureDefinition/qicore-observation"
          ]
        },
        "status": "final",
        "category": [
          {
            "coding": [
              {
                "system": "http://terminology.hl7.org/CodeSystem/observation-category",
                "code": "survey",
                "display": "Survey"
              }
            ]
          }
        ],
        "code": {
          "coding": [
            {
              "system": "http://loinc.org",
              "code": "98968-1",
              "display": "Initial screening NRS_2002",
              "userSelected": true
            }
          ]
        },
        "subject": {
          "reference": "Patient/70c9f76c-18d8-42aa-a8fe-28bf143808e4"
        },
        "effectiveDateTime": "2026-02-01T09:00:00.000+00:00",
        "valueCodeableConcept": {
          "coding": [
            {
              "system": "http://snomed.info/sct",
              "code": "704358009",
              "display": "At risk of nutritional deficit (finding)",
              "userSelected": true
            }
          ]
        }
      },
      "request": {
        "method": "PUT",
        "url": "Observation/6e8b8b10-14e6-4e54-836e-367d0346ef0c"
      }
    },
    {
      "fullUrl": "https://madie.cms.gov/Procedure/961a223d-e4bb-4a41-8cd7-3206da48c668",
      "resource": {
        "resourceType": "Procedure",
        "id": "961a223d-e4bb-4a41-8cd7-3206da48c668",
        "meta": {
          "profile": [
            "http://hl7.org/fhir/us/qicore/StructureDefinition/qicore-procedure"
          ]
        },
        "extension": [
          {
            "url": "http://hl7.org/fhir/us/qicore/StructureDefinition/qicore-recorded",
            "valueDateTime": "2025-02-01T11:30:00.000Z"
          }
        ],
        "status": "completed",
        "code": {
          "coding": [
            {
              "system": "http://snomed.info/sct",
              "code": "306354000",
              "display": "Referral to hospital-based dietitian (procedure)"
            }
          ],
          "text": "Referral to hospital-based dietitian(procedure)"
        },
        "subject": {
          "reference": "Patient/70c9f76c-18d8-42aa-a8fe-28bf143808e4"
        },
        "encounter": {
          "reference": "Encounter/ScreAtriRefNoasseNodxNocp2DENOMPass2"
        },
        "performedPeriod": {
          "start": "2026-02-01T11:30:00.000Z",
          "end": "2026-02-07T08:15:00.000Z"
        }
      },
      "request": {
        "method": "PUT",
        "url": "Procedure/961a223d-e4bb-4a41-8cd7-3206da48c668"
      }
    },
    {
      "fullUrl": "https://madie.cms.gov/Procedure/051e1115-f630-4d0a-b153-ea943274323c",
      "resource": {
        "resourceType": "Procedure",
        "id": "051e1115-f630-4d0a-b153-ea943274323c",
        "meta": {
          "profile": [
            "http://hl7.org/fhir/us/qicore/StructureDefinition/qicore-procedure"
          ]
        },
        "extension": [
          {
            "url": "http://hl7.org/fhir/us/qicore/StructureDefinition/qicore-recorded",
            "valueDateTime": "2025-02-02T11:30:00.000Z"
          }
        ],
        "status": "completed",
        "code": {
          "coding": [
            {
              "system": "http://snomed.info/sct",
              "code": "418995006",
              "display": "Feeding regime (regime/therapy)"
            }
          ],
          "text": "Feeding regime (regime/therapy)"
        },
        "subject": {
          "reference": "Patient/70c9f76c-18d8-42aa-a8fe-28bf143808e4"
        },
        "encounter": {
          "reference": "Encounter/ScreAtriRefNoasseNodxNocp2DENOMPass2"
        },
        "performedPeriod": {
          "start": "2026-02-01T11:30:00.000Z",
          "end": "2026-02-07T08:15:00.000Z"
        }
      },
      "request": {
        "method": "PUT",
        "url": "Procedure/051e1115-f630-4d0a-b153-ea943274323c"
      }
    },
    {
      "fullUrl": "https://madie.cms.gov/Coverage/2875515d-895f-4401-9ffa-71eb601269da",
      "resource": {
        "resourceType": "Coverage",
        "id": "2875515d-895f-4401-9ffa-71eb601269da",
        "meta": {
          "profile": [
            "http://hl7.org/fhir/us/qicore/StructureDefinition/qicore-coverage"
          ]
        },
        "status": "active",
        "type": {
          "coding": [
            {
              "system": "https://nahdo.org/sopt",
              "version": "9.2",
              "code": "11",
              "display": "Medicare Managed Care (Includes Medicare Advantage Plans)"
            }
          ]
        },
        "beneficiary": {
          "reference": "Patient/70c9f76c-18d8-42aa-a8fe-28bf143808e4"
        },
        "period": {
          "start": "2024-10-01T00:00:00+00:00"
        },
        "payor": [
          {
            "reference": "Organization/a82bd8df-8d59-41ec-822e-c37174dba1c6"
          }
        ]
      },
      "request": {
        "method": "PUT",
        "url": "Coverage/2875515d-895f-4401-9ffa-71eb601269da"
      }
    },
    {
      "fullUrl": "https://madie.cms.gov/Organization/a82bd8df-8d59-41ec-822e-c37174dba1c6",
      "resource": {
        "resourceType": "Organization",
        "id": "a82bd8df-8d59-41ec-822e-c37174dba1c6",
        "meta": {
          "profile": [
            "http://hl7.org/fhir/us/qicore/StructureDefinition/qicore-organization"
          ]
        },
        "identifier": [
          {
            "use": "temp",
            "system": "urn:oid:2.16.840.1.113883.4.4",
            "value": "21-3259825"
          }
        ],
        "active": true,
        "type": [
          {
            "coding": [
              {
                "system": "http://terminology.hl7.org/CodeSystem/organization-type",
                "code": "pay",
                "display": "Payer"
              }
            ]
          }
        ],
        "name": "Blue Cross Blue Shield of Texas",
        "telecom": [
          {
            "system": "phone",
            "value": "(+1) 972-766-6900"
          }
        ],
        "address": [
          {
            "use": "billing",
            "type": "postal",
            "line": [
              "P.O. Box 660044"
            ],
            "city": "Dallas",
            "state": "TX",
            "postalCode": "75266-0044",
            "country": "USA"
          }
        ]
      },
      "request": {
        "method": "PUT",
        "url": "Organization/a82bd8df-8d59-41ec-822e-c37174dba1c6"
      }
    },
    {
      "fullUrl": "https://madie.cms.gov/MeasureReport/85341123-5de8-40dd-b5d6-490cce3191ab",
      "resource": {
        "resourceType": "MeasureReport",
        "id": "85341123-5de8-40dd-b5d6-490cce3191ab",
        "meta": {
          "profile": [
            "http://hl7.org/fhir/us/cqfmeasures/StructureDefinition/test-case-cqfm"
          ]
        },
        "contained": [
          {
            "resourceType": "Parameters",
            "id": "5446e43f-7a8d-4906-8eb0-4b148170fdae-parameters",
            "parameter": [
              {
                "name": "subject",
                "valueString": "70c9f76c-18d8-42aa-a8fe-28bf143808e4"
              }
            ]
          }
        ],
        "extension": [
          {
            "url": "http://hl7.org/fhir/us/cqfmeasures/StructureDefinition/cqfm-inputParameters",
            "valueReference": {
              "reference": "#5446e43f-7a8d-4906-8eb0-4b148170fdae-parameters"
            }
          },
          {
            "url": "http://hl7.org/fhir/us/cqfmeasures/StructureDefinition/cqfm-testCaseDescription",
            "valueMarkdown": "Screened, At Risk, Referral, Not Assessed, No Diagnosis, Nutrition Care Plan"
          }
        ],
        "modifierExtension": [
          {
            "url": "http://hl7.org/fhir/us/cqfmeasures/StructureDefinition/cqfm-isTestCase",
            "valueBoolean": true
          }
        ],
        "status": "complete",
        "type": "individual",
        "measure": "https://madie.cms.gov/Measure/GlobalMalnutritionCompositeFHIR",
        "period": {
          "start": "2026-01-01",
          "end": "2026-12-31"
        },
        "group": [
          {
            "population": [
              {
                "code": {
                  "coding": [
                    {
                      "system": "http://terminology.hl7.org/CodeSystem/measure-population",
                      "code": "initial-population",
                      "display": "Initial Population"
                    }
                  ]
                },
                "count": 1
              },
              {
                "code": {
                  "coding": [
                    {
                      "system": "http://terminology.hl7.org/CodeSystem/measure-population",
                      "code": "measure-population",
                      "display": "Measure Population"
                    }
                  ]
                },
                "count": 1
              },
              {
                "code": {
                  "coding": [
                    {
                      "system": "http://terminology.hl7.org/CodeSystem/measure-population",
                      "code": "measure-population-observation",
                      "display": "Measure Population Observation"
                    }
                  ]
                },
                "count": 1
              }
            ]
          },
          {
            "population": [
              {
                "code": {
                  "coding": [
                    {
                      "system": "http://terminology.hl7.org/CodeSystem/measure-population",
                      "code": "initial-population",
                      "display": "Initial Population"
                    }
                  ]
                },
                "count": 1
              },
              {
                "code": {
                  "coding": [
                    {
                      "system": "http://terminology.hl7.org/CodeSystem/measure-population",
                      "code": "measure-population",
                      "display": "Measure Population"
                    }
                  ]
                },
                "count": 1
              },
              {
                "code": {
                  "coding": [
                    {
                      "system": "http://terminology.hl7.org/CodeSystem/measure-population",
                      "code": "measure-population-observation",
                      "display": "Measure Population Observation"
                    }
                  ]
                },
                "count": 0
              }
            ]
          },
          {
            "population": [
              {
                "code": {
                  "coding": [
                    {
                      "system": "http://terminology.hl7.org/CodeSystem/measure-population",
                      "code": "initial-population",
                      "display": "Initial Population"
                    }
                  ]
                },
                "count": 1
              },
              {
                "code": {
                  "coding": [
                    {
                      "system": "http://terminology.hl7.org/CodeSystem/measure-population",
                      "code": "measure-population",
                      "display": "Measure Population"
                    }
                  ]
                },
                "count": 1
              },
              {
                "code": {
                  "coding": [
                    {
                      "system": "http://terminology.hl7.org/CodeSystem/measure-population",
                      "code": "measure-population-observation",
                      "display": "Measure Population Observation"
                    }
                  ]
                },
                "count": 0
              }
            ]
          },
          {
            "population": [
              {
                "code": {
                  "coding": [
                    {
                      "system": "http://terminology.hl7.org/CodeSystem/measure-population",
                      "code": "initial-population",
                      "display": "Initial Population"
                    }
                  ]
                },
                "count": 1
              },
              {
                "code": {
                  "coding": [
                    {
                      "system": "http://terminology.hl7.org/CodeSystem/measure-population",
                      "code": "measure-population",
                      "display": "Measure Population"
                    }
                  ]
                },
                "count": 1
              },
              {
                "code": {
                  "coding": [
                    {
                      "system": "http://terminology.hl7.org/CodeSystem/measure-population",
                      "code": "measure-population-observation",
                      "display": "Measure Population Observation"
                    }
                  ]
                },
                "count": 0
              }
            ]
          },
          {
            "population": [
              {
                "code": {
                  "coding": [
                    {
                      "system": "http://terminology.hl7.org/CodeSystem/measure-population",
                      "code": "initial-population",
                      "display": "Initial Population"
                    }
                  ]
                },
                "count": 1
              },
              {
                "code": {
                  "coding": [
                    {
                      "system": "http://terminology.hl7.org/CodeSystem/measure-population",
                      "code": "measure-population",
                      "display": "Measure Population"
                    }
                  ]
                },
                "count": 1
              },
              {
                "code": {
                  "coding": [
                    {
                      "system": "http://terminology.hl7.org/CodeSystem/measure-population",
                      "code": "measure-population-observation",
                      "display": "Measure Population Observation"
                    }
                  ]
                },
                "count": 1
              }
            ]
          },
          {
            "population": [
              {
                "code": {
                  "coding": [
                    {
                      "system": "http://terminology.hl7.org/CodeSystem/measure-population",
                      "code": "initial-population",
                      "display": "Initial Population"
                    }
                  ]
                },
                "count": 1
              },
              {
                "code": {
                  "coding": [
                    {
                      "system": "http://terminology.hl7.org/CodeSystem/measure-population",
                      "code": "measure-population",
                      "display": "Measure Population"
                    }
                  ]
                },
                "count": 1
              },
              {
                "code": {
                  "coding": [
                    {
                      "system": "http://terminology.hl7.org/CodeSystem/measure-population",
                      "code": "measure-population-observation",
                      "display": "Measure Population Observation"
                    }
                  ]
                },
                "count": 50
              }
            ]
          }
        ],
        "evaluatedResource": [
          {
            "reference": "Patient/70c9f76c-18d8-42aa-a8fe-28bf143808e4"
          },
          {
            "reference": "Encounter/4f5f2654-b077-4f59-b133-2f0007552ba2"
          },
          {
            "reference": "Observation/6e8b8b10-14e6-4e54-836e-367d0346ef0c"
          },
          {
            "reference": "Procedure/961a223d-e4bb-4a41-8cd7-3206da48c668"
          },
          {
            "reference": "Procedure/051e1115-f630-4d0a-b153-ea943274323c"
          },
          {
            "reference": "Coverage/2875515d-895f-4401-9ffa-71eb601269da"
          },
          {
            "reference": "Organization/a82bd8df-8d59-41ec-822e-c37174dba1c6"
          }
        ]
      },
      "request": {
        "method": "PUT",
        "url": "MeasureReport/85341123-5de8-40dd-b5d6-490cce3191ab"
      }
    }
  ]
}