{
  "resourceType": "Bundle",
  "id": "63ec0965ccb3770120fe9b07",
  "type": "transaction",
  "entry": [
    {
      "fullUrl": "https://madie.cms.gov/Patient/69148fea-5911-4661-9c0d-1df2c287cd30",
      "resource": {
        "resourceType": "Patient",
        "id": "69148fea-5911-4661-9c0d-1df2c287cd30",
        "meta": {
          "profile": [
            "http://hl7.org/fhir/us/qicore/StructureDefinition/qicore-patient"
          ]
        },
        "text": {
          "status": "generated",
          "div": "<div xmlns=\"http://www.w3.org/1999/xhtml\"><div class=\"hapiHeaderText\">GT2after_relevantPeriod <b>TEMPFAIL </b></div><table class=\"hapiPropertyTable\"><tbody><tr><td>Identifier</td><td>cf7574e0b0359d44c480900ab191162d228d27f86315407c0dffcae5d072e7d9</td></tr><tr><td>Date of birth</td><td><span>15 June 1956</span></td></tr></tbody></table></div>"
        },
        "extension": [
          {
            "url": "http://hl7.org/fhir/us/core/StructureDefinition/us-core-race",
            "extension": [
              {
                "url": "ombCategory",
                "valueCoding": {
                  "system": "urn:oid:2.16.840.1.113883.6.238",
                  "code": "1002-5",
                  "display": "American Indian or Alaska Native",
                  "userSelected": true
                }
              },
              {
                "url": "text",
                "valueString": "American Indian or Alaska Native"
              }
            ]
          },
          {
            "url": "http://hl7.org/fhir/us/core/StructureDefinition/us-core-ethnicity",
            "extension": [
              {
                "url": "ombCategory",
                "valueCoding": {
                  "system": "urn:oid:2.16.840.1.113883.6.238",
                  "code": "2186-5",
                  "display": "Not Hispanic or Latino",
                  "userSelected": true
                }
              },
              {
                "url": "text",
                "valueString": "Not Hispanic or Latino"
              }
            ]
          }
        ],
        "identifier": [
          {
            "type": {
              "coding": [
                {
                  "system": "http://terminology.hl7.org/CodeSystem/v2-0203",
                  "code": "MR"
                }
              ]
            },
            "system": "https://bonnie-fhir.healthit.gov/",
            "value": "63ec0965ccb3770120fe9b07"
          }
        ],
        "active": true,
        "name": [
          {
            "use": "usual",
            "family": "TemperatureFail",
            "given": [
              "24Hrs1MinBeforeStartOfInpatient"
            ]
          }
        ],
        "gender": "male",
        "birthDate": "1960-06-29"
      },
      "request": {
        "method": "PUT",
        "url": "Patient/69148fea-5911-4661-9c0d-1df2c287cd30"
      }
    },
    {
      "fullUrl": "https://madie.cms.gov/Encounter/2daa549b-6713-432a-9842-48239aa108c3",
      "resource": {
        "resourceType": "Encounter",
        "id": "2daa549b-6713-432a-9842-48239aa108c3",
        "meta": {
          "profile": [
            "http://hl7.org/fhir/us/qicore/StructureDefinition/qicore-encounter"
          ]
        },
        "status": "finished",
        "class": {
          "system": "http://terminology.hl7.org/CodeSystem/v3-ActCode",
          "code": "NONAC",
          "display": "Nonacute",
          "userSelected": true
        },
        "type": [
          {
            "coding": [
              {
                "system": "http://snomed.info/sct",
                "code": "183452005",
                "display": "Emergency hospital admission (procedure)"
              }
            ]
          }
        ],
        "subject": {
          "reference": "Patient/69148fea-5911-4661-9c0d-1df2c287cd30"
        },
        "period": {
          "start": "2026-06-30T00:00:00.000+00:00",
          "end": "2026-06-30T23:59:00.000+00:00"
        },
        "length": {
          "value": 1,
          "unit": "days"
        }
      },
      "request": {
        "method": "PUT",
        "url": "Encounter/2daa549b-6713-432a-9842-48239aa108c3"
      }
    },
    {
      "fullUrl": "https://madie.cms.gov/Coverage/8ba8c9d6-6b59-406d-941a-ba02e7ecdc9e",
      "resource": {
        "resourceType": "Coverage",
        "id": "8ba8c9d6-6b59-406d-941a-ba02e7ecdc9e",
        "meta": {
          "profile": [
            "http://hl7.org/fhir/us/qicore/StructureDefinition/qicore-coverage"
          ]
        },
        "status": "active",
        "type": {
          "coding": [
            {
              "system": "https://nahdo.org/sopt",
              "version": "1.0.1",
              "code": "1",
              "display": "Medicare payer",
              "userSelected": true
            }
          ]
        },
        "beneficiary": {
          "reference": "Patient/69148fea-5911-4661-9c0d-1df2c287cd30"
        },
        "payor": [
          {
            "reference": "Organization/c9a6d9da-3f35-4ff2-83e8-41fafc89f664"
          }
        ]
      },
      "request": {
        "method": "PUT",
        "url": "Coverage/8ba8c9d6-6b59-406d-941a-ba02e7ecdc9e"
      }
    },
    {
      "fullUrl": "https://madie.cms.gov/Observation/b159163b-4cff-4f70-b8a1-b77a7736daed",
      "resource": {
        "resourceType": "Observation",
        "id": "b159163b-4cff-4f70-b8a1-b77a7736daed",
        "meta": {
          "profile": [
            "http://hl7.org/fhir/StructureDefinition/bodytemp"
          ]
        },
        "status": "final",
        "category": [
          {
            "coding": [
              {
                "system": "http://terminology.hl7.org/CodeSystem/observation-category",
                "code": "vital-signs",
                "display": "Vital Signs",
                "userSelected": true
              }
            ]
          }
        ],
        "code": {
          "coding": [
            {
              "system": "http://loinc.org",
              "code": "8310-5",
              "display": "Body temperature"
            }
          ]
        },
        "subject": {
          "reference": "Patient/69148fea-5911-4661-9c0d-1df2c287cd30"
        },
        "effectiveDateTime": "2026-06-28T23:59:00.000+00:00",
        "valueQuantity": {
          "value": 98.6,
          "unit": "[degF]",
          "system": "http://unitsofmeasure.org",
          "code": "[degF]"
        }
      },
      "request": {
        "method": "PUT",
        "url": "Observation/b159163b-4cff-4f70-b8a1-b77a7736daed"
      }
    },
    {
      "fullUrl": "https://madie.cms.gov/Organization/c9a6d9da-3f35-4ff2-83e8-41fafc89f664",
      "resource": {
        "resourceType": "Organization",
        "id": "c9a6d9da-3f35-4ff2-83e8-41fafc89f664",
        "meta": {
          "profile": [
            "http://hl7.org/fhir/us/qicore/StructureDefinition/qicore-organization"
          ]
        },
        "identifier": [
          {
            "use": "temp",
            "system": "urn:oid:2.16.840.1.113883.4.4",
            "value": "21-3259825"
          }
        ],
        "active": true,
        "type": [
          {
            "coding": [
              {
                "system": "http://terminology.hl7.org/CodeSystem/organization-type",
                "code": "pay",
                "display": "Payer"
              }
            ]
          }
        ],
        "name": "Blue Cross Blue Shield of Texas",
        "telecom": [
          {
            "system": "phone",
            "value": "(+1) 972-766-6900"
          }
        ],
        "address": [
          {
            "use": "billing",
            "type": "postal",
            "line": [
              "P.O. Box 660044"
            ],
            "city": "Dallas",
            "state": "TX",
            "postalCode": "75266-0044",
            "country": "USA"
          }
        ]
      },
      "request": {
        "method": "PUT",
        "url": "Organization/c9a6d9da-3f35-4ff2-83e8-41fafc89f664"
      }
    },
    {
      "fullUrl": "https://madie.cms.gov/Practitioner/55923b0a-423d-4ad1-81c2-b703df7304f4",
      "resource": {
        "resourceType": "Practitioner",
        "id": "55923b0a-423d-4ad1-81c2-b703df7304f4",
        "meta": {
          "profile": [
            "http://hl7.org/fhir/us/qicore/StructureDefinition/qicore-practitioner"
          ]
        },
        "identifier": [
          {
            "system": "http://hl7.org/fhir/sid/us-npi",
            "value": "123456"
          }
        ],
        "name": [
          {
            "family": "Evil",
            "prefix": [
              "Dr"
            ]
          }
        ]
      },
      "request": {
        "method": "PUT",
        "url": "Practitioner/55923b0a-423d-4ad1-81c2-b703df7304f4"
      }
    },
    {
      "fullUrl": "https://madie.cms.gov/MeasureReport/a972cfad-9dd1-4e47-8efe-dce690d4ca7b",
      "resource": {
        "resourceType": "MeasureReport",
        "id": "a972cfad-9dd1-4e47-8efe-dce690d4ca7b",
        "meta": {
          "profile": [
            "http://hl7.org/fhir/us/cqfmeasures/StructureDefinition/test-case-cqfm"
          ]
        },
        "contained": [
          {
            "resourceType": "Parameters",
            "id": "b2221a7c-068f-4bb7-b095-4b20b85f24a8-parameters",
            "parameter": [
              {
                "name": "subject",
                "valueString": "69148fea-5911-4661-9c0d-1df2c287cd30"
              }
            ]
          }
        ],
        "extension": [
          {
            "url": "http://hl7.org/fhir/us/cqfmeasures/StructureDefinition/cqfm-inputParameters",
            "valueReference": {
              "reference": "#b2221a7c-068f-4bb7-b095-4b20b85f24a8-parameters"
            }
          },
          {
            "url": "http://hl7.org/fhir/us/cqfmeasures/StructureDefinition/cqfm-testCaseDescription",
            "valueMarkdown": "Enc last day of MP (6/30, next year), has Medicare, temperature taken 24 hrs 1 min before start of inpatient admission."
          }
        ],
        "modifierExtension": [
          {
            "url": "http://hl7.org/fhir/us/cqfmeasures/StructureDefinition/cqfm-isTestCase",
            "valueBoolean": true
          }
        ],
        "status": "complete",
        "type": "individual",
        "measure": "https://madie.cms.gov/Measure/HybridHospitalWideMortalityFHIR",
        "period": {
          "start": "2025-07-01",
          "end": "2026-06-30"
        },
        "group": [
          {
            "population": [
              {
                "code": {
                  "coding": [
                    {
                      "system": "http://terminology.hl7.org/CodeSystem/measure-population",
                      "code": "initial-population",
                      "display": "Initial Population"
                    }
                  ]
                },
                "count": 1
              }
            ]
          }
        ],
        "evaluatedResource": [
          {
            "reference": "Patient/69148fea-5911-4661-9c0d-1df2c287cd30"
          },
          {
            "reference": "Encounter/2daa549b-6713-432a-9842-48239aa108c3"
          },
          {
            "reference": "Coverage/8ba8c9d6-6b59-406d-941a-ba02e7ecdc9e"
          },
          {
            "reference": "Observation/b159163b-4cff-4f70-b8a1-b77a7736daed"
          },
          {
            "reference": "Organization/c9a6d9da-3f35-4ff2-83e8-41fafc89f664"
          },
          {
            "reference": "Practitioner/55923b0a-423d-4ad1-81c2-b703df7304f4"
          }
        ]
      },
      "request": {
        "method": "PUT",
        "url": "MeasureReport/a972cfad-9dd1-4e47-8efe-dce690d4ca7b"
      }
    }
  ]
}