{
  "resourceType": "Bundle",
  "id": "6356dca654e383debade75aa",
  "type": "transaction",
  "entry": [
    {
      "fullUrl": "https://madie.cms.gov/Patient/66f422af-110c-40c0-98c5-c8d26c91187f",
      "resource": {
        "resourceType": "Patient",
        "id": "66f422af-110c-40c0-98c5-c8d26c91187f",
        "meta": {
          "profile": [
            "http://hl7.org/fhir/us/qicore/StructureDefinition/qicore-patient"
          ]
        },
        "text": {
          "status": "generated",
          "div": "<div xmlns=\"http://www.w3.org/1999/xhtml\"><div class=\"hapiHeaderText\">DischDisp=Expired <b>NUMPASS </b></div><table class=\"hapiPropertyTable\"><tbody><tr><td>Date of birth</td><td><span>01 February 2004</span></td></tr></tbody></table></div>"
        },
        "extension": [
          {
            "url": "http://hl7.org/fhir/us/core/StructureDefinition/us-core-race",
            "extension": [
              {
                "url": "ombCategory",
                "valueCoding": {
                  "system": "urn:oid:2.16.840.1.113883.6.238",
                  "code": "1002-5",
                  "display": "American Indian or Alaska Native",
                  "userSelected": true
                }
              },
              {
                "url": "text",
                "valueString": "American Indian or Alaska Native"
              }
            ]
          },
          {
            "url": "http://hl7.org/fhir/us/core/StructureDefinition/us-core-ethnicity",
            "extension": [
              {
                "url": "ombCategory",
                "valueCoding": {
                  "system": "urn:oid:2.16.840.1.113883.6.238",
                  "code": "2135-2",
                  "display": "Hispanic or Latino",
                  "userSelected": true
                }
              },
              {
                "url": "text",
                "valueString": "Hispanic or Latino"
              }
            ]
          }
        ],
        "identifier": [
          {
            "type": {
              "coding": [
                {
                  "system": "http://terminology.hl7.org/CodeSystem/v2-0203",
                  "code": "MR"
                }
              ]
            },
            "system": "https://bonnie-fhir.healthit.gov/",
            "value": "6356dca654e383debade75aa"
          }
        ],
        "active": true,
        "name": [
          {
            "use": "usual",
            "family": "NUMPass",
            "given": [
              "DxIsSepsisPOAisNo"
            ]
          }
        ],
        "gender": "female",
        "birthDate": "2004-02-01"
      },
      "request": {
        "method": "PUT",
        "url": "Patient/66f422af-110c-40c0-98c5-c8d26c91187f"
      }
    },
    {
      "fullUrl": "https://madie.cms.gov/Observation/6fc0a7b3-312b-4e96-b469-5f2939575352",
      "resource": {
        "resourceType": "Observation",
        "id": "6fc0a7b3-312b-4e96-b469-5f2939575352",
        "meta": {
          "profile": [
            "http://hl7.org/fhir/us/qicore/StructureDefinition/qicore-observation"
          ]
        },
        "status": "final",
        "category": [
          {
            "coding": [
              {
                "system": "http://terminology.hl7.org/CodeSystem/observation-category",
                "code": "exam",
                "display": "exam",
                "userSelected": true
              }
            ]
          }
        ],
        "code": {
          "coding": [
            {
              "system": "http://loinc.org",
              "code": "93857-1"
            }
          ]
        },
        "subject": {
          "reference": "Patient/66f422af-110c-40c0-98c5-c8d26c91187f"
        },
        "effectiveDateTime": "2024-02-01T08:00:00.000+00:00",
        "valueDateTime": "2024-02-01T08:00:00+00:00"
      },
      "request": {
        "method": "PUT",
        "url": "Observation/6fc0a7b3-312b-4e96-b469-5f2939575352"
      }
    },
    {
      "fullUrl": "https://madie.cms.gov/Observation/ec7e9556-7e25-4032-bcb9-3921854ccaba",
      "resource": {
        "resourceType": "Observation",
        "id": "ec7e9556-7e25-4032-bcb9-3921854ccaba",
        "meta": {
          "profile": [
            "http://hl7.org/fhir/us/qicore/StructureDefinition/qicore-observation"
          ]
        },
        "status": "final",
        "category": [
          {
            "coding": [
              {
                "system": "http://terminology.hl7.org/CodeSystem/observation-category",
                "code": "exam",
                "display": "exam",
                "userSelected": true
              }
            ]
          }
        ],
        "code": {
          "coding": [
            {
              "system": "http://loinc.org",
              "code": "11884-4"
            }
          ]
        },
        "subject": {
          "reference": "Patient/66f422af-110c-40c0-98c5-c8d26c91187f"
        },
        "effectiveDateTime": "2024-02-01T08:00:00.000+00:00",
        "valueQuantity": {
          "value": 21,
          "system": "http://unitsofmeasure.org",
          "code": "wk"
        }
      },
      "request": {
        "method": "PUT",
        "url": "Observation/ec7e9556-7e25-4032-bcb9-3921854ccaba"
      }
    },
    {
      "fullUrl": "https://madie.cms.gov/Encounter/87c76a35-6473-4f75-a39a-c23823882e51",
      "resource": {
        "resourceType": "Encounter",
        "id": "87c76a35-6473-4f75-a39a-c23823882e51",
        "meta": {
          "profile": [
            "http://hl7.org/fhir/us/qicore/StructureDefinition/qicore-encounter"
          ]
        },
        "status": "finished",
        "class": {
          "system": "http://terminology.hl7.org/CodeSystem/v3-ActCode",
          "code": "IMP",
          "display": "inpatient encounter"
        },
        "type": [
          {
            "coding": [
              {
                "system": "http://snomed.info/sct",
                "code": "183452005"
              }
            ]
          }
        ],
        "subject": {
          "reference": "Patient/66f422af-110c-40c0-98c5-c8d26c91187f"
        },
        "period": {
          "start": "2024-02-01T08:00:00.000Z",
          "end": "2024-02-05T08:15:00.000Z"
        },
        "diagnosis": [
          {
            "extension": [
              {
                "url": "http://hl7.org/fhir/us/qicore/StructureDefinition/qicore-encounter-diagnosisPresentOnAdmission",
                "valueCodeableConcept": {
                  "coding": [
                    {
                      "system": "https://www.cms.gov/Medicare/Medicare-Fee-for-Service-Payment/HospitalAcqCond/Coding",
                      "code": "N"
                    }
                  ]
                }
              }
            ],
            "condition": {
              "reference": "Condition/3f46b94d-46b4-4c7e-892e-4f1f9901640e"
            }
          }
        ]
      },
      "request": {
        "method": "PUT",
        "url": "Encounter/87c76a35-6473-4f75-a39a-c23823882e51"
      }
    },
    {
      "fullUrl": "https://madie.cms.gov/Procedure/c88b4835-2dea-44fb-9ea1-fe168ee8e754",
      "resource": {
        "resourceType": "Procedure",
        "id": "c88b4835-2dea-44fb-9ea1-fe168ee8e754",
        "meta": {
          "profile": [
            "http://hl7.org/fhir/us/qicore/StructureDefinition/qicore-procedure"
          ]
        },
        "extension": [
          {
            "url": "http://hl7.org/fhir/us/qicore/StructureDefinition/qicore-recorded",
            "valueDateTime": "2013-04-05T09:35:00-04:00"
          }
        ],
        "status": "completed",
        "code": {
          "coding": [
            {
              "system": "http://snomed.info/sct",
              "code": "10745001"
            }
          ]
        },
        "subject": {
          "reference": "Patient/66f422af-110c-40c0-98c5-c8d26c91187f"
        },
        "performedPeriod": {
          "start": "2024-02-01T08:00:00.000Z",
          "end": "2024-02-05T08:15:00.000Z"
        }
      },
      "request": {
        "method": "PUT",
        "url": "Procedure/c88b4835-2dea-44fb-9ea1-fe168ee8e754"
      }
    },
    {
      "fullUrl": "https://madie.cms.gov/Condition/3f46b94d-46b4-4c7e-892e-4f1f9901640e",
      "resource": {
        "resourceType": "Condition",
        "id": "3f46b94d-46b4-4c7e-892e-4f1f9901640e",
        "meta": {
          "profile": [
            "http://hl7.org/fhir/us/qicore/StructureDefinition/qicore-condition"
          ]
        },
        "category": [
          {
            "coding": [
              {
                "system": "http://terminology.hl7.org/CodeSystem/condition-category",
                "code": "encounter-diagnosis",
                "display": "Encounter Diagnosis"
              }
            ]
          }
        ],
        "code": {
          "coding": [
            {
              "system": "http://hl7.org/fhir/sid/icd-10-cm",
              "version": "2023",
              "code": "A32.7",
              "display": "Listerial sepsis",
              "userSelected": true
            }
          ]
        },
        "subject": {
          "reference": "Patient/66f422af-110c-40c0-98c5-c8d26c91187f"
        },
        "recordedDate": "2024-10-26T08:00:00.000+00:00"
      },
      "request": {
        "method": "PUT",
        "url": "Condition/3f46b94d-46b4-4c7e-892e-4f1f9901640e"
      }
    },
    {
      "fullUrl": "https://madie.cms.gov/Coverage/569609b3-b571-4b38-99c0-077e8000c0c9",
      "resource": {
        "resourceType": "Coverage",
        "id": "569609b3-b571-4b38-99c0-077e8000c0c9",
        "meta": {
          "profile": [
            "http://hl7.org/fhir/us/qicore/StructureDefinition/qicore-coverage"
          ]
        },
        "status": "active",
        "beneficiary": {
          "reference": "Patient/66f422af-110c-40c0-98c5-c8d26c91187f"
        },
        "payor": [
          {
            "reference": "Organization/5e57f842-eb78-45c9-900e-e32b1413e8b7"
          }
        ]
      },
      "request": {
        "method": "PUT",
        "url": "Coverage/569609b3-b571-4b38-99c0-077e8000c0c9"
      }
    },
    {
      "fullUrl": "https://madie.cms.gov/Organization/5e57f842-eb78-45c9-900e-e32b1413e8b7",
      "resource": {
        "resourceType": "Organization",
        "id": "5e57f842-eb78-45c9-900e-e32b1413e8b7",
        "meta": {
          "profile": [
            "http://hl7.org/fhir/us/qicore/StructureDefinition/qicore-organization"
          ]
        },
        "identifier": [
          {
            "use": "temp",
            "system": "urn:oid:2.16.840.1.113883.4.4",
            "value": "21-3259825"
          }
        ],
        "active": true,
        "type": [
          {
            "coding": [
              {
                "system": "http://terminology.hl7.org/CodeSystem/organization-type",
                "code": "pay",
                "display": "Payer"
              }
            ]
          }
        ],
        "name": "Blue Cross Blue Shield of Texas",
        "telecom": [
          {
            "system": "phone",
            "value": "(+1) 972-766-6900"
          }
        ],
        "address": [
          {
            "use": "billing",
            "type": "postal",
            "line": [
              "P.O. Box 660044"
            ],
            "city": "Dallas",
            "state": "TX",
            "postalCode": "75266-0044",
            "country": "USA"
          }
        ]
      },
      "request": {
        "method": "PUT",
        "url": "Organization/5e57f842-eb78-45c9-900e-e32b1413e8b7"
      }
    },
    {
      "fullUrl": "https://madie.cms.gov/Practitioner/04beec5b-bc2d-4ca3-a6ca-5ff4b81836ed",
      "resource": {
        "resourceType": "Practitioner",
        "id": "04beec5b-bc2d-4ca3-a6ca-5ff4b81836ed",
        "identifier": [
          {
            "system": "http://hl7.org/fhir/sid/us-npi",
            "value": "123456"
          }
        ],
        "name": [
          {
            "family": "Evil",
            "prefix": [
              "Dr"
            ]
          }
        ]
      },
      "request": {
        "method": "PUT",
        "url": "Practitioner/04beec5b-bc2d-4ca3-a6ca-5ff4b81836ed"
      }
    },
    {
      "fullUrl": "https://madie.cms.gov/MeasureReport/7d493679-404e-4969-bf9d-8299ba77b446",
      "resource": {
        "resourceType": "MeasureReport",
        "id": "7d493679-404e-4969-bf9d-8299ba77b446",
        "meta": {
          "profile": [
            "http://hl7.org/fhir/us/cqfmeasures/StructureDefinition/test-case-cqfm"
          ]
        },
        "contained": [
          {
            "resourceType": "Parameters",
            "id": "bdb4386b-9588-4e16-a9b1-20a19d3abe1c-parameters",
            "parameter": [
              {
                "name": "subject",
                "valueString": "66f422af-110c-40c0-98c5-c8d26c91187f"
              }
            ]
          }
        ],
        "extension": [
          {
            "url": "http://hl7.org/fhir/us/cqfmeasures/StructureDefinition/cqfm-inputParameters",
            "valueReference": {
              "reference": "#bdb4386b-9588-4e16-a9b1-20a19d3abe1c-parameters"
            }
          },
          {
            "url": "http://hl7.org/fhir/us/cqfmeasures/StructureDefinition/cqfm-testCaseDescription",
            "valueMarkdown": "EncDx= sepsis (ICD10 coded). \n"
          }
        ],
        "modifierExtension": [
          {
            "url": "http://hl7.org/fhir/us/cqfmeasures/StructureDefinition/cqfm-isTestCase",
            "valueBoolean": true
          }
        ],
        "status": "complete",
        "type": "individual",
        "measure": "https://madie.cms.gov/Measure/SevereObstetricComplicationsFHIR",
        "period": {
          "start": "2024-01-01",
          "end": "2024-12-31"
        },
        "group": [
          {
            "population": [
              {
                "code": {
                  "coding": [
                    {
                      "system": "http://terminology.hl7.org/CodeSystem/measure-population",
                      "code": "initial-population",
                      "display": "Initial Population"
                    }
                  ]
                },
                "count": 1
              },
              {
                "code": {
                  "coding": [
                    {
                      "system": "http://terminology.hl7.org/CodeSystem/measure-population",
                      "code": "denominator",
                      "display": "Denominator"
                    }
                  ]
                },
                "count": 1
              },
              {
                "code": {
                  "coding": [
                    {
                      "system": "http://terminology.hl7.org/CodeSystem/measure-population",
                      "code": "denominator-exclusion",
                      "display": "Denominator Exclusion"
                    }
                  ]
                },
                "count": 0
              },
              {
                "code": {
                  "coding": [
                    {
                      "system": "http://terminology.hl7.org/CodeSystem/measure-population",
                      "code": "numerator",
                      "display": "Numerator"
                    }
                  ]
                },
                "count": 1
              }
            ]
          }
        ],
        "evaluatedResource": [
          {
            "reference": "Patient/66f422af-110c-40c0-98c5-c8d26c91187f"
          },
          {
            "reference": "Observation/6fc0a7b3-312b-4e96-b469-5f2939575352"
          },
          {
            "reference": "Observation/ec7e9556-7e25-4032-bcb9-3921854ccaba"
          },
          {
            "reference": "Encounter/87c76a35-6473-4f75-a39a-c23823882e51"
          },
          {
            "reference": "Procedure/c88b4835-2dea-44fb-9ea1-fe168ee8e754"
          },
          {
            "reference": "Condition/3f46b94d-46b4-4c7e-892e-4f1f9901640e"
          },
          {
            "reference": "Coverage/569609b3-b571-4b38-99c0-077e8000c0c9"
          },
          {
            "reference": "Organization/5e57f842-eb78-45c9-900e-e32b1413e8b7"
          },
          {
            "reference": "Practitioner/04beec5b-bc2d-4ca3-a6ca-5ff4b81836ed"
          }
        ]
      },
      "request": {
        "method": "PUT",
        "url": "MeasureReport/7d493679-404e-4969-bf9d-8299ba77b446"
      }
    }
  ]
}