{
  "resourceType": "Bundle",
  "id": "633b3f9e0968f80122503cbb",
  "type": "transaction",
  "entry": [
    {
      "fullUrl": "https://madie.cms.gov/Patient/193bcb0f-e579-47d1-b09f-f3bb93b126ac",
      "resource": {
        "resourceType": "Patient",
        "id": "193bcb0f-e579-47d1-b09f-f3bb93b126ac",
        "meta": {
          "profile": [
            "http://hl7.org/fhir/us/qicore/StructureDefinition/qicore-patient"
          ]
        },
        "text": {
          "status": "generated",
          "div": "<div xmlns=\"http://www.w3.org/1999/xhtml\"><div class=\"hapiHeaderText\">Age8OnDayOfEncStart <b>IPPASS </b></div><table class=\"hapiPropertyTable\"><tbody><tr><td>Date of birth</td><td><span>01 February 2004</span></td></tr></tbody></table></div>"
        },
        "extension": [
          {
            "url": "http://hl7.org/fhir/us/core/StructureDefinition/us-core-race",
            "extension": [
              {
                "url": "ombCategory",
                "valueCoding": {
                  "system": "urn:oid:2.16.840.1.113883.6.238",
                  "code": "1002-5",
                  "display": "American Indian or Alaska Native",
                  "userSelected": true
                }
              },
              {
                "url": "text",
                "valueString": "American Indian or Alaska Native"
              }
            ]
          },
          {
            "url": "http://hl7.org/fhir/us/core/StructureDefinition/us-core-ethnicity",
            "extension": [
              {
                "url": "ombCategory",
                "valueCoding": {
                  "system": "urn:oid:2.16.840.1.113883.6.238",
                  "code": "2135-2",
                  "display": "Hispanic or Latino",
                  "userSelected": true
                }
              },
              {
                "url": "text",
                "valueString": "Hispanic or Latino"
              }
            ]
          }
        ],
        "identifier": [
          {
            "type": {
              "coding": [
                {
                  "system": "http://terminology.hl7.org/CodeSystem/v2-0203",
                  "code": "MR"
                }
              ]
            },
            "system": "https://bonnie-fhir.healthit.gov/",
            "value": "633b3f9e0968f80122503cbb"
          }
        ],
        "active": true,
        "name": [
          {
            "use": "usual",
            "family": "IPPass",
            "given": [
              "Age8OnDayOfEncStart"
            ]
          }
        ],
        "gender": "male",
        "birthDate": "2016-02-01"
      },
      "request": {
        "method": "PUT",
        "url": "Patient/193bcb0f-e579-47d1-b09f-f3bb93b126ac"
      }
    },
    {
      "fullUrl": "https://madie.cms.gov/Encounter/c9343d34-95bd-40fe-bc27-1b9ba182f1ca",
      "resource": {
        "resourceType": "Encounter",
        "id": "c9343d34-95bd-40fe-bc27-1b9ba182f1ca",
        "meta": {
          "profile": [
            "http://hl7.org/fhir/us/qicore/StructureDefinition/qicore-encounter"
          ]
        },
        "status": "finished",
        "class": {
          "system": "http://terminology.hl7.org/CodeSystem/v3-ActCode",
          "code": "IMP",
          "display": "inpatient encounter"
        },
        "type": [
          {
            "coding": [
              {
                "system": "http://snomed.info/sct",
                "code": "183452005"
              }
            ]
          }
        ],
        "subject": {
          "reference": "Patient/193bcb0f-e579-47d1-b09f-f3bb93b126ac"
        },
        "period": {
          "start": "2024-02-01T08:00:00.000Z",
          "end": "2024-02-05T08:15:00.000Z"
        },
        "diagnosis": [
          {
            "condition": {
              "reference": "Condition/Condition-2"
            },
            "use": {
              "coding": [
                {
                  "system": "http://snomed.info/sct",
                  "code": "169826009",
                  "display": "Delivery of Singleton"
                }
              ]
            }
          }
        ]
      },
      "request": {
        "method": "PUT",
        "url": "Encounter/c9343d34-95bd-40fe-bc27-1b9ba182f1ca"
      }
    },
    {
      "fullUrl": "https://madie.cms.gov/Procedure/d7e71058-4699-4e2f-9f7b-90fe559d5bd0",
      "resource": {
        "resourceType": "Procedure",
        "id": "d7e71058-4699-4e2f-9f7b-90fe559d5bd0",
        "meta": {
          "profile": [
            "http://hl7.org/fhir/us/qicore/StructureDefinition/qicore-procedure"
          ]
        },
        "extension": [
          {
            "url": "http://hl7.org/fhir/us/qicore/StructureDefinition/qicore-recorded",
            "valueDateTime": "2013-04-05T09:35:00-04:00"
          }
        ],
        "status": "completed",
        "code": {
          "coding": [
            {
              "system": "http://snomed.info/sct",
              "version": "2022-09",
              "code": "10745001",
              "display": "Delivery of transverse presentation (procedure)",
              "userSelected": true
            }
          ]
        },
        "subject": {
          "reference": "Patient/193bcb0f-e579-47d1-b09f-f3bb93b126ac"
        },
        "performedPeriod": {
          "start": "2024-02-01T08:00:00.000Z",
          "end": "2024-02-05T08:15:00.000Z"
        }
      },
      "request": {
        "method": "PUT",
        "url": "Procedure/d7e71058-4699-4e2f-9f7b-90fe559d5bd0"
      }
    },
    {
      "fullUrl": "https://madie.cms.gov/Coverage/2c78bf31-2d80-4184-b4f1-73d6eca4e217",
      "resource": {
        "resourceType": "Coverage",
        "id": "2c78bf31-2d80-4184-b4f1-73d6eca4e217",
        "meta": {
          "profile": [
            "http://hl7.org/fhir/us/qicore/StructureDefinition/qicore-coverage"
          ]
        },
        "status": "active",
        "beneficiary": {
          "reference": "Patient/193bcb0f-e579-47d1-b09f-f3bb93b126ac"
        },
        "payor": [
          {
            "reference": "Organization/4e350f9a-8b8c-4802-93d2-a981da299933"
          }
        ]
      },
      "request": {
        "method": "PUT",
        "url": "Coverage/2c78bf31-2d80-4184-b4f1-73d6eca4e217"
      }
    },
    {
      "fullUrl": "https://madie.cms.gov/Organization/4e350f9a-8b8c-4802-93d2-a981da299933",
      "resource": {
        "resourceType": "Organization",
        "id": "4e350f9a-8b8c-4802-93d2-a981da299933",
        "meta": {
          "profile": [
            "http://hl7.org/fhir/us/qicore/StructureDefinition/qicore-organization"
          ]
        },
        "identifier": [
          {
            "use": "temp",
            "system": "urn:oid:2.16.840.1.113883.4.4",
            "value": "21-3259825"
          }
        ],
        "active": true,
        "type": [
          {
            "coding": [
              {
                "system": "http://terminology.hl7.org/CodeSystem/organization-type",
                "code": "pay",
                "display": "Payer"
              }
            ]
          }
        ],
        "name": "Blue Cross Blue Shield of Texas",
        "telecom": [
          {
            "system": "phone",
            "value": "(+1) 972-766-6900"
          }
        ],
        "address": [
          {
            "use": "billing",
            "type": "postal",
            "line": [
              "P.O. Box 660044"
            ],
            "city": "Dallas",
            "state": "TX",
            "postalCode": "75266-0044",
            "country": "USA"
          }
        ]
      },
      "request": {
        "method": "PUT",
        "url": "Organization/4e350f9a-8b8c-4802-93d2-a981da299933"
      }
    },
    {
      "fullUrl": "https://madie.cms.gov/Coverage/49e2db37-b209-4600-9426-d537da5ce929",
      "resource": {
        "resourceType": "Coverage",
        "id": "49e2db37-b209-4600-9426-d537da5ce929",
        "meta": {
          "profile": [
            "http://hl7.org/fhir/us/qicore/StructureDefinition/qicore-coverage"
          ]
        },
        "status": "active",
        "type": {
          "coding": [
            {
              "system": "https://nahdo.org/sopt",
              "code": "1",
              "display": "MEDICARE"
            }
          ]
        },
        "beneficiary": {
          "reference": "Patient/193bcb0f-e579-47d1-b09f-f3bb93b126ac"
        },
        "period": {
          "start": "2024-11-28T08:00:00.000Z",
          "end": "2024-11-30T08:15:00.000Z"
        },
        "payor": [
          {
            "reference": "Organization/4e350f9a-8b8c-4802-93d2-a981da299933"
          }
        ]
      },
      "request": {
        "method": "PUT",
        "url": "Coverage/49e2db37-b209-4600-9426-d537da5ce929"
      }
    },
    {
      "fullUrl": "https://madie.cms.gov/Practitioner/98d065d4-04f4-4863-9224-f913725cd1f9",
      "resource": {
        "resourceType": "Practitioner",
        "id": "98d065d4-04f4-4863-9224-f913725cd1f9",
        "identifier": [
          {
            "system": "http://hl7.org/fhir/sid/us-npi",
            "value": "123456"
          }
        ],
        "name": [
          {
            "family": "Evil",
            "prefix": [
              "Dr"
            ]
          }
        ]
      },
      "request": {
        "method": "PUT",
        "url": "Practitioner/98d065d4-04f4-4863-9224-f913725cd1f9"
      }
    },
    {
      "fullUrl": "https://madie.cms.gov/MeasureReport/f5ff8f68-fe4e-49ec-b59d-7f83f9abf564",
      "resource": {
        "resourceType": "MeasureReport",
        "id": "f5ff8f68-fe4e-49ec-b59d-7f83f9abf564",
        "meta": {
          "profile": [
            "http://hl7.org/fhir/us/cqfmeasures/StructureDefinition/test-case-cqfm"
          ]
        },
        "contained": [
          {
            "resourceType": "Parameters",
            "id": "4d348f7b-4036-4bef-b2a1-1221d9f551ba-parameters",
            "parameter": [
              {
                "name": "subject",
                "valueString": "193bcb0f-e579-47d1-b09f-f3bb93b126ac"
              }
            ]
          }
        ],
        "extension": [
          {
            "url": "http://hl7.org/fhir/us/cqfmeasures/StructureDefinition/cqfm-inputParameters",
            "valueReference": {
              "reference": "#4d348f7b-4036-4bef-b2a1-1221d9f551ba-parameters"
            }
          },
          {
            "url": "http://hl7.org/fhir/us/cqfmeasures/StructureDefinition/cqfm-testCaseDescription",
            "valueMarkdown": "Won't impact outcome as payer is not specified in the logic."
          }
        ],
        "modifierExtension": [
          {
            "url": "http://hl7.org/fhir/us/cqfmeasures/StructureDefinition/cqfm-isTestCase",
            "valueBoolean": true
          }
        ],
        "status": "complete",
        "type": "individual",
        "measure": "https://madie.cms.gov/Measure/SevereObstetricComplicationsFHIR",
        "period": {
          "start": "2024-01-01",
          "end": "2024-12-31"
        },
        "group": [
          {
            "population": [
              {
                "code": {
                  "coding": [
                    {
                      "system": "http://terminology.hl7.org/CodeSystem/measure-population",
                      "code": "initial-population",
                      "display": "Initial Population"
                    }
                  ]
                },
                "count": 1
              },
              {
                "code": {
                  "coding": [
                    {
                      "system": "http://terminology.hl7.org/CodeSystem/measure-population",
                      "code": "denominator",
                      "display": "Denominator"
                    }
                  ]
                },
                "count": 0
              },
              {
                "code": {
                  "coding": [
                    {
                      "system": "http://terminology.hl7.org/CodeSystem/measure-population",
                      "code": "denominator-exclusion",
                      "display": "Denominator Exclusion"
                    }
                  ]
                },
                "count": 0
              },
              {
                "code": {
                  "coding": [
                    {
                      "system": "http://terminology.hl7.org/CodeSystem/measure-population",
                      "code": "numerator",
                      "display": "Numerator"
                    }
                  ]
                },
                "count": 0
              }
            ]
          }
        ],
        "evaluatedResource": [
          {
            "reference": "Patient/193bcb0f-e579-47d1-b09f-f3bb93b126ac"
          },
          {
            "reference": "Encounter/c9343d34-95bd-40fe-bc27-1b9ba182f1ca"
          },
          {
            "reference": "Procedure/d7e71058-4699-4e2f-9f7b-90fe559d5bd0"
          },
          {
            "reference": "Coverage/2c78bf31-2d80-4184-b4f1-73d6eca4e217"
          },
          {
            "reference": "Organization/4e350f9a-8b8c-4802-93d2-a981da299933"
          },
          {
            "reference": "Coverage/49e2db37-b209-4600-9426-d537da5ce929"
          },
          {
            "reference": "Practitioner/98d065d4-04f4-4863-9224-f913725cd1f9"
          }
        ]
      },
      "request": {
        "method": "PUT",
        "url": "MeasureReport/f5ff8f68-fe4e-49ec-b59d-7f83f9abf564"
      }
    }
  ]
}