{
  "resourceType": "Bundle",
  "id": "63f3a249ccb3770120ffe6eb",
  "type": "transaction",
  "entry": [
    {
      "fullUrl": "https://madie.cms.gov/Patient/c8012162-bc11-430b-84d4-809b66ab3cf0",
      "resource": {
        "resourceType": "Patient",
        "id": "c8012162-bc11-430b-84d4-809b66ab3cf0",
        "meta": {
          "profile": [
            "http://hl7.org/fhir/us/qicore/StructureDefinition/qicore-patient"
          ]
        },
        "text": {
          "status": "generated",
          "div": "<div xmlns=\"http://www.w3.org/1999/xhtml\"><div class=\"hapiHeaderText\">LTE24before <b>BICARBPASS </b></div><table class=\"hapiPropertyTable\"><tbody><tr><td>Identifier</td><td>d69abbc179641b9cd673a4a9152886e8e63bc2e0e7b27e1a51505ef2a774679e</td></tr><tr><td>Date of birth</td><td><span>15 June 1956</span></td></tr></tbody></table></div>"
        },
        "extension": [
          {
            "url": "http://hl7.org/fhir/us/core/StructureDefinition/us-core-race",
            "extension": [
              {
                "url": "ombCategory",
                "valueCoding": {
                  "system": "urn:oid:2.16.840.1.113883.6.238",
                  "code": "1002-5",
                  "display": "American Indian or Alaska Native",
                  "userSelected": true
                }
              },
              {
                "url": "text",
                "valueString": "American Indian or Alaska Native"
              }
            ]
          },
          {
            "url": "http://hl7.org/fhir/us/core/StructureDefinition/us-core-ethnicity",
            "extension": [
              {
                "url": "ombCategory",
                "valueCoding": {
                  "system": "urn:oid:2.16.840.1.113883.6.238",
                  "code": "2186-5",
                  "display": "Not Hispanic or Latino",
                  "userSelected": true
                }
              },
              {
                "url": "text",
                "valueString": "Not Hispanic or Latino"
              }
            ]
          }
        ],
        "identifier": [
          {
            "type": {
              "coding": [
                {
                  "system": "http://terminology.hl7.org/CodeSystem/v2-0203",
                  "code": "MR"
                }
              ]
            },
            "system": "https://bonnie-fhir.healthit.gov/",
            "value": "63f3a249ccb3770120ffe6eb"
          }
        ],
        "active": true,
        "name": [
          {
            "use": "usual",
            "family": "BicarbonatePass",
            "given": [
              "24HourAfterStartOfAdmit"
            ]
          }
        ],
        "gender": "male",
        "birthDate": "1960-07-01"
      },
      "request": {
        "method": "PUT",
        "url": "Patient/c8012162-bc11-430b-84d4-809b66ab3cf0"
      }
    },
    {
      "fullUrl": "https://madie.cms.gov/Encounter/1f69722a-1271-4e64-89c1-36a86a5f1fff",
      "resource": {
        "resourceType": "Encounter",
        "id": "1f69722a-1271-4e64-89c1-36a86a5f1fff",
        "meta": {
          "profile": [
            "http://hl7.org/fhir/us/qicore/StructureDefinition/qicore-encounter"
          ]
        },
        "status": "finished",
        "class": {
          "system": "http://terminology.hl7.org/CodeSystem/v3-ActCode",
          "code": "IMP",
          "display": "inpatient encounter",
          "userSelected": true
        },
        "type": [
          {
            "coding": [
              {
                "system": "http://snomed.info/sct",
                "code": "183452005"
              }
            ]
          }
        ],
        "subject": {
          "reference": "Patient/c8012162-bc11-430b-84d4-809b66ab3cf0"
        },
        "period": {
          "start": "2025-07-01T08:00:00.000+00:00",
          "end": "2025-07-03T08:15:00.000+00:00"
        }
      },
      "request": {
        "method": "PUT",
        "url": "Encounter/1f69722a-1271-4e64-89c1-36a86a5f1fff"
      }
    },
    {
      "fullUrl": "https://madie.cms.gov/Encounter/1f69722a-1271-4e64-89c1-36a86a5f1fff1",
      "resource": {
        "resourceType": "Encounter",
        "id": "1f69722a-1271-4e64-89c1-36a86a5f1fff1",
        "meta": {
          "profile": [
            "http://hl7.org/fhir/us/qicore/StructureDefinition/qicore-encounter"
          ]
        },
        "status": "finished",
        "class": {
          "system": "http://terminology.hl7.org/CodeSystem/v3-ActCode",
          "code": "IMP",
          "display": "inpatient encounter",
          "userSelected": true
        },
        "type": [
          {
            "coding": [
              {
                "system": "http://snomed.info/sct",
                "code": "183452005"
              }
            ]
          }
        ],
        "subject": {
          "reference": "Patient/c8012162-bc11-430b-84d4-809b66ab3cf0"
        },
        "period": {
          "start": "2026-01-01T08:00:00.000+00:00",
          "end": "2026-01-03T08:15:00.000+00:00"
        }
      },
      "request": {
        "method": "PUT",
        "url": "Encounter/1f69722a-1271-4e64-89c1-36a86a5f1fff1"
      }
    },
    {
      "fullUrl": "https://madie.cms.gov/Coverage/6fe73845-dc9b-4192-8aa1-ebc9cb2fdd4f",
      "resource": {
        "resourceType": "Coverage",
        "id": "6fe73845-dc9b-4192-8aa1-ebc9cb2fdd4f",
        "meta": {
          "profile": [
            "http://hl7.org/fhir/us/qicore/StructureDefinition/qicore-coverage"
          ]
        },
        "status": "active",
        "type": {
          "coding": [
            {
              "system": "https://nahdo.org/sopt",
              "version": "1.0.1",
              "code": "1",
              "display": "Medicare payer",
              "userSelected": true
            }
          ]
        },
        "beneficiary": {
          "reference": "Patient/c8012162-bc11-430b-84d4-809b66ab3cf0"
        },
        "period": {
          "start": "2025-01-01T08:00:00.000+00:00",
          "end": "2025-12-31T08:15:00.000+00:00"
        },
        "payor": [
          {
            "reference": "Organization/5d0fedfc-32c5-42eb-93de-b44ec9599fc4"
          }
        ]
      },
      "request": {
        "method": "PUT",
        "url": "Coverage/6fe73845-dc9b-4192-8aa1-ebc9cb2fdd4f"
      }
    },
    {
      "fullUrl": "https://madie.cms.gov/Observation/dc83f60a-6ee6-4154-abc9-216b6735be3a",
      "resource": {
        "resourceType": "Observation",
        "id": "dc83f60a-6ee6-4154-abc9-216b6735be3a",
        "meta": {
          "profile": [
            "http://hl7.org/fhir/us/core/StructureDefinition/us-core-observation-lab"
          ]
        },
        "status": "final",
        "category": [
          {
            "coding": [
              {
                "system": "http://terminology.hl7.org/CodeSystem/observation-category",
                "code": "laboratory",
                "display": "laboratory",
                "userSelected": true
              }
            ]
          }
        ],
        "code": {
          "coding": [
            {
              "system": "http://loinc.org",
              "code": "14627-4",
              "display": "Bicarbonate [Moles/volume] in Venous blood"
            }
          ]
        },
        "subject": {
          "reference": "Patient/c8012162-bc11-430b-84d4-809b66ab3cf0"
        },
        "effectiveDateTime": "2025-07-02T08:00:00.000+00:00",
        "issued": "2025-07-02T08:00:00.000+00:00",
        "valueQuantity": {
          "value": 25,
          "unit": "mmol/L",
          "system": "http://unitsofmeasure.org",
          "code": "mg/dL"
        }
      },
      "request": {
        "method": "PUT",
        "url": "Observation/dc83f60a-6ee6-4154-abc9-216b6735be3a"
      }
    },
    {
      "fullUrl": "https://madie.cms.gov/Observation/dc83f60a-6ee6-4154-abc9-216b6735be3a1",
      "resource": {
        "resourceType": "Observation",
        "id": "dc83f60a-6ee6-4154-abc9-216b6735be3a1",
        "meta": {
          "profile": [
            "http://hl7.org/fhir/us/core/StructureDefinition/us-core-observation-lab"
          ]
        },
        "status": "final",
        "category": [
          {
            "coding": [
              {
                "system": "http://terminology.hl7.org/CodeSystem/observation-category",
                "code": "laboratory",
                "display": "laboratory",
                "userSelected": true
              }
            ]
          }
        ],
        "code": {
          "coding": [
            {
              "system": "http://loinc.org",
              "code": "14627-4",
              "display": "Bicarbonate [Moles/volume] in Venous blood"
            }
          ]
        },
        "subject": {
          "reference": "Patient/c8012162-bc11-430b-84d4-809b66ab3cf0"
        },
        "effectiveDateTime": "2026-01-01T08:00:00.000+00:00",
        "issued": "2026-01-01T08:00:00.000+00:00",
        "valueQuantity": {
          "value": 28,
          "unit": "mmol/L",
          "system": "http://unitsofmeasure.org",
          "code": "mg/dL"
        }
      },
      "request": {
        "method": "PUT",
        "url": "Observation/dc83f60a-6ee6-4154-abc9-216b6735be3a1"
      }
    },
    {
      "fullUrl": "https://madie.cms.gov/Organization/5d0fedfc-32c5-42eb-93de-b44ec9599fc4",
      "resource": {
        "resourceType": "Organization",
        "id": "5d0fedfc-32c5-42eb-93de-b44ec9599fc4",
        "meta": {
          "profile": [
            "http://hl7.org/fhir/us/qicore/StructureDefinition/qicore-organization"
          ]
        },
        "identifier": [
          {
            "use": "temp",
            "system": "urn:oid:2.16.840.1.113883.4.4",
            "value": "21-3259825"
          }
        ],
        "active": true,
        "type": [
          {
            "coding": [
              {
                "system": "http://terminology.hl7.org/CodeSystem/organization-type",
                "code": "pay",
                "display": "Payer"
              }
            ]
          }
        ],
        "name": "Blue Cross Blue Shield of Texas",
        "telecom": [
          {
            "system": "phone",
            "value": "(+1) 972-766-6900"
          }
        ],
        "address": [
          {
            "use": "billing",
            "type": "postal",
            "line": [
              "P.O. Box 660044"
            ],
            "city": "Dallas",
            "state": "TX",
            "postalCode": "75266-0044",
            "country": "USA"
          }
        ]
      },
      "request": {
        "method": "PUT",
        "url": "Organization/5d0fedfc-32c5-42eb-93de-b44ec9599fc4"
      }
    },
    {
      "fullUrl": "https://madie.cms.gov/Practitioner/bd2da9ac-58b9-421e-86cb-02674a4a7b6d",
      "resource": {
        "resourceType": "Practitioner",
        "id": "bd2da9ac-58b9-421e-86cb-02674a4a7b6d",
        "meta": {
          "profile": [
            "http://hl7.org/fhir/us/qicore/StructureDefinition/qicore-practitioner"
          ]
        },
        "identifier": [
          {
            "system": "http://hl7.org/fhir/sid/us-npi",
            "value": "123456"
          }
        ],
        "name": [
          {
            "family": "Evil",
            "prefix": [
              "Dr"
            ]
          }
        ]
      },
      "request": {
        "method": "PUT",
        "url": "Practitioner/bd2da9ac-58b9-421e-86cb-02674a4a7b6d"
      }
    },
    {
      "fullUrl": "https://madie.cms.gov/MeasureReport/7123cecc-d5b0-491a-bace-b8c3b74519d2",
      "resource": {
        "resourceType": "MeasureReport",
        "id": "7123cecc-d5b0-491a-bace-b8c3b74519d2",
        "meta": {
          "profile": [
            "http://hl7.org/fhir/us/cqfmeasures/StructureDefinition/test-case-cqfm"
          ]
        },
        "contained": [
          {
            "resourceType": "Parameters",
            "id": "7eddce11-2d10-45fb-825b-fd3e6a66c9ad-parameters",
            "parameter": [
              {
                "name": "subject",
                "valueString": "c8012162-bc11-430b-84d4-809b66ab3cf0"
              }
            ]
          }
        ],
        "extension": [
          {
            "url": "http://hl7.org/fhir/us/cqfmeasures/StructureDefinition/cqfm-inputParameters",
            "valueReference": {
              "reference": "#7eddce11-2d10-45fb-825b-fd3e6a66c9ad-parameters"
            }
          },
          {
            "url": "http://hl7.org/fhir/us/cqfmeasures/StructureDefinition/cqfm-testCaseDescription",
            "valueMarkdown": "Enc 1 first day of MP bircarbonate 25 mmol/L 24 hrs after admission\nEnc 2 first day of MP bircarbonate 28 mmol/L at admission"
          }
        ],
        "modifierExtension": [
          {
            "url": "http://hl7.org/fhir/us/cqfmeasures/StructureDefinition/cqfm-isTestCase",
            "valueBoolean": true
          }
        ],
        "status": "complete",
        "type": "individual",
        "measure": "https://madie.cms.gov/Measure/HybridHospitalWideMortalityFHIR",
        "period": {
          "start": "2025-07-01",
          "end": "2026-06-30"
        },
        "group": [
          {
            "population": [
              {
                "code": {
                  "coding": [
                    {
                      "system": "http://terminology.hl7.org/CodeSystem/measure-population",
                      "code": "initial-population",
                      "display": "Initial Population"
                    }
                  ]
                },
                "count": 2
              }
            ]
          }
        ],
        "evaluatedResource": [
          {
            "reference": "Patient/c8012162-bc11-430b-84d4-809b66ab3cf0"
          },
          {
            "reference": "Encounter/1f69722a-1271-4e64-89c1-36a86a5f1fff"
          },
          {
            "reference": "Encounter/1f69722a-1271-4e64-89c1-36a86a5f1fff1"
          },
          {
            "reference": "Coverage/6fe73845-dc9b-4192-8aa1-ebc9cb2fdd4f"
          },
          {
            "reference": "Observation/dc83f60a-6ee6-4154-abc9-216b6735be3a"
          },
          {
            "reference": "Observation/dc83f60a-6ee6-4154-abc9-216b6735be3a1"
          },
          {
            "reference": "Organization/5d0fedfc-32c5-42eb-93de-b44ec9599fc4"
          },
          {
            "reference": "Practitioner/bd2da9ac-58b9-421e-86cb-02674a4a7b6d"
          }
        ]
      },
      "request": {
        "method": "PUT",
        "url": "MeasureReport/7123cecc-d5b0-491a-bace-b8c3b74519d2"
      }
    }
  ]
}