{
  "resourceType": "Bundle",
  "id": "6353045e224f3b053967124c",
  "type": "transaction",
  "entry": [
    {
      "fullUrl": "https://madie.cms.gov/Patient/26e2a12e-2913-49e6-b9ae-e02ebd752b86",
      "resource": {
        "resourceType": "Patient",
        "id": "26e2a12e-2913-49e6-b9ae-e02ebd752b86",
        "meta": {
          "profile": [
            "http://hl7.org/fhir/us/qicore/StructureDefinition/qicore-patient"
          ]
        },
        "extension": [
          {
            "url": "http://hl7.org/fhir/us/core/StructureDefinition/us-core-race",
            "extension": [
              {
                "url": "ombCategory",
                "valueCoding": {
                  "system": "urn:oid:2.16.840.1.113883.6.238",
                  "code": "1002-5",
                  "display": "American Indian or Alaska Native",
                  "userSelected": true
                }
              },
              {
                "url": "text",
                "valueString": "American Indian or Alaska Native"
              }
            ]
          },
          {
            "url": "http://hl7.org/fhir/us/core/StructureDefinition/us-core-ethnicity",
            "extension": [
              {
                "url": "ombCategory",
                "valueCoding": {
                  "system": "urn:oid:2.16.840.1.113883.6.238",
                  "code": "2135-2",
                  "display": "Hispanic or Latino",
                  "userSelected": true
                }
              },
              {
                "url": "text",
                "valueString": "Hispanic or Latino"
              }
            ]
          }
        ],
        "identifier": [
          {
            "type": {
              "coding": [
                {
                  "system": "http://terminology.hl7.org/CodeSystem/v2-0203",
                  "code": "MR"
                }
              ]
            },
            "system": "https://bonnie-fhir.healthit.gov/",
            "value": "6353045e224f3b053967124c"
          }
        ],
        "name": [
          {
            "family": "DENOMPass",
            "given": [
              "EDD24Hrs1MinB4TimeOfDel"
            ]
          }
        ],
        "gender": "female",
        "birthDate": "2004-02-01"
      },
      "request": {
        "method": "PUT",
        "url": "Patient/26e2a12e-2913-49e6-b9ae-e02ebd752b86"
      }
    },
    {
      "fullUrl": "https://madie.cms.gov/Encounter/a1788a21-3595-4599-acc2-6fe94d7e5b90",
      "resource": {
        "resourceType": "Encounter",
        "id": "a1788a21-3595-4599-acc2-6fe94d7e5b90",
        "meta": {
          "profile": [
            "http://hl7.org/fhir/us/qicore/StructureDefinition/qicore-encounter"
          ]
        },
        "status": "finished",
        "class": {
          "system": "http://terminology.hl7.org/CodeSystem/v3-ActCode",
          "code": "IMP",
          "display": "inpatient encounter"
        },
        "type": [
          {
            "coding": [
              {
                "system": "http://snomed.info/sct",
                "version": "2022-09",
                "code": "183452005",
                "display": "Emergency hospital admission (procedure)",
                "userSelected": true
              }
            ]
          }
        ],
        "subject": {
          "reference": "Patient/26e2a12e-2913-49e6-b9ae-e02ebd752b86"
        },
        "period": {
          "start": "2024-02-01T08:00:00.000+00:00",
          "end": "2024-02-05T08:15:00.000+00:00"
        }
      },
      "request": {
        "method": "PUT",
        "url": "Encounter/a1788a21-3595-4599-acc2-6fe94d7e5b90"
      }
    },
    {
      "fullUrl": "https://madie.cms.gov/Procedure/8b3c2680-ba96-4116-8683-bdf57b6d2fa5",
      "resource": {
        "resourceType": "Procedure",
        "id": "8b3c2680-ba96-4116-8683-bdf57b6d2fa5",
        "meta": {
          "profile": [
            "http://hl7.org/fhir/us/qicore/StructureDefinition/qicore-procedure"
          ]
        },
        "extension": [
          {
            "url": "http://hl7.org/fhir/us/qicore/StructureDefinition/qicore-recorded",
            "valueDateTime": "2013-04-05T09:35:00-04:00"
          }
        ],
        "status": "completed",
        "code": {
          "coding": [
            {
              "system": "http://snomed.info/sct",
              "version": "2022-09",
              "code": "10745001",
              "display": "Delivery of transverse presentation (procedure)",
              "userSelected": true
            }
          ]
        },
        "subject": {
          "reference": "Patient/26e2a12e-2913-49e6-b9ae-e02ebd752b86"
        },
        "performedPeriod": {
          "start": "2024-02-01T08:00:00.000+00:00",
          "end": "2024-02-05T08:15:00.000+00:00"
        }
      },
      "request": {
        "method": "PUT",
        "url": "Procedure/8b3c2680-ba96-4116-8683-bdf57b6d2fa5"
      }
    },
    {
      "fullUrl": "https://madie.cms.gov/Observation/a6fe29b9-623e-4e6b-b2ae-d4f776f068a8",
      "resource": {
        "resourceType": "Observation",
        "id": "a6fe29b9-623e-4e6b-b2ae-d4f776f068a8",
        "meta": {
          "profile": [
            "http://hl7.org/fhir/us/qicore/StructureDefinition/qicore-observation"
          ]
        },
        "status": "final",
        "category": [
          {
            "coding": [
              {
                "system": "http://terminology.hl7.org/CodeSystem/observation-category",
                "code": "exam",
                "display": "exam",
                "userSelected": true
              }
            ]
          }
        ],
        "code": {
          "coding": [
            {
              "system": "http://loinc.org",
              "code": "93857-1",
              "display": "Date and time of obstetric delivery",
              "userSelected": true
            }
          ]
        },
        "subject": {
          "reference": "Patient/26e2a12e-2913-49e6-b9ae-e02ebd752b86"
        },
        "effectiveDateTime": "2024-02-01T08:00:00.000+00:00",
        "valueDateTime": "2024-02-01T08:00:00.000+00:00"
      },
      "request": {
        "method": "PUT",
        "url": "Observation/a6fe29b9-623e-4e6b-b2ae-d4f776f068a8"
      }
    },
    {
      "fullUrl": "https://madie.cms.gov/Observation/e5dc1899-cdbc-48ca-9b6d-34625bc7eb3f",
      "resource": {
        "resourceType": "Observation",
        "id": "e5dc1899-cdbc-48ca-9b6d-34625bc7eb3f",
        "meta": {
          "profile": [
            "http://hl7.org/fhir/us/qicore/StructureDefinition/qicore-observation"
          ]
        },
        "status": "final",
        "category": [
          {
            "coding": [
              {
                "system": "http://terminology.hl7.org/CodeSystem/observation-category",
                "code": "exam",
                "display": "exam",
                "userSelected": true
              }
            ]
          }
        ],
        "code": {
          "coding": [
            {
              "system": "http://loinc.org",
              "code": "11778-8",
              "display": "Delivery date Estimated",
              "userSelected": true
            }
          ]
        },
        "subject": {
          "reference": "Patient/26e2a12e-2913-49e6-b9ae-e02ebd752b86"
        },
        "effectiveDateTime": "2024-01-31T07:59:00.000+00:00",
        "valueDateTime": "2024-01-31T08:01:00.000+00:00"
      },
      "request": {
        "method": "PUT",
        "url": "Observation/e5dc1899-cdbc-48ca-9b6d-34625bc7eb3f"
      }
    },
    {
      "fullUrl": "https://madie.cms.gov/Coverage/8cd77b7e-dba3-4b80-a71a-a7a7be4b7ba3",
      "resource": {
        "resourceType": "Coverage",
        "id": "8cd77b7e-dba3-4b80-a71a-a7a7be4b7ba3",
        "meta": {
          "profile": [
            "http://hl7.org/fhir/us/qicore/StructureDefinition/qicore-coverage"
          ]
        },
        "status": "active",
        "beneficiary": {
          "reference": "Patient/26e2a12e-2913-49e6-b9ae-e02ebd752b86"
        },
        "payor": [
          {
            "reference": "Organization/0d8850a8-a296-49f7-828e-d63531370493"
          }
        ]
      },
      "request": {
        "method": "PUT",
        "url": "Coverage/8cd77b7e-dba3-4b80-a71a-a7a7be4b7ba3"
      }
    },
    {
      "fullUrl": "https://madie.cms.gov/Organization/0d8850a8-a296-49f7-828e-d63531370493",
      "resource": {
        "resourceType": "Organization",
        "id": "0d8850a8-a296-49f7-828e-d63531370493",
        "meta": {
          "profile": [
            "http://hl7.org/fhir/us/qicore/StructureDefinition/qicore-organization"
          ]
        },
        "identifier": [
          {
            "use": "temp",
            "system": "urn:oid:2.16.840.1.113883.4.4",
            "value": "21-3259825"
          }
        ],
        "active": true,
        "type": [
          {
            "coding": [
              {
                "system": "http://terminology.hl7.org/CodeSystem/organization-type",
                "code": "pay",
                "display": "Payer"
              }
            ]
          }
        ],
        "name": "Blue Cross Blue Shield of Texas",
        "telecom": [
          {
            "system": "phone",
            "value": "(+1) 972-766-6900"
          }
        ],
        "address": [
          {
            "use": "billing",
            "type": "postal",
            "line": [
              "P.O. Box 660044"
            ],
            "city": "Dallas",
            "state": "TX",
            "postalCode": "75266-0044",
            "country": "USA"
          }
        ]
      },
      "request": {
        "method": "PUT",
        "url": "Organization/0d8850a8-a296-49f7-828e-d63531370493"
      }
    },
    {
      "fullUrl": "https://madie.cms.gov/Practitioner/73f23f71-8b1a-4df8-b148-35cb6344506d",
      "resource": {
        "resourceType": "Practitioner",
        "id": "73f23f71-8b1a-4df8-b148-35cb6344506d",
        "identifier": [
          {
            "system": "http://hl7.org/fhir/sid/us-npi",
            "value": "123456"
          }
        ],
        "name": [
          {
            "family": "Evil",
            "prefix": [
              "Dr"
            ]
          }
        ]
      },
      "request": {
        "method": "PUT",
        "url": "Practitioner/73f23f71-8b1a-4df8-b148-35cb6344506d"
      }
    },
    {
      "fullUrl": "https://madie.cms.gov/MeasureReport/91d9e509-350f-4ea7-88ac-d4a9ae79f4fb",
      "resource": {
        "resourceType": "MeasureReport",
        "id": "91d9e509-350f-4ea7-88ac-d4a9ae79f4fb",
        "meta": {
          "profile": [
            "http://hl7.org/fhir/us/cqfmeasures/StructureDefinition/test-case-cqfm"
          ]
        },
        "contained": [
          {
            "resourceType": "Parameters",
            "id": "23a4b4ae-0fe2-497f-99b3-859ee2693584-parameters",
            "parameter": [
              {
                "name": "subject",
                "valueString": "26e2a12e-2913-49e6-b9ae-e02ebd752b86"
              }
            ]
          }
        ],
        "extension": [
          {
            "url": "http://hl7.org/fhir/us/cqfmeasures/StructureDefinition/cqfm-inputParameters",
            "valueReference": {
              "reference": "#23a4b4ae-0fe2-497f-99b3-859ee2693584-parameters"
            }
          },
          {
            "url": "http://hl7.org/fhir/us/cqfmeasures/StructureDefinition/cqfm-testCaseDescription",
            "valueMarkdown": "Last assessment Performed, Estimated Delivery Date, Relevant time, 24 hours 1 min before Delivery Result Date/Time.  EDD has date/time\n"
          }
        ],
        "modifierExtension": [
          {
            "url": "http://hl7.org/fhir/us/cqfmeasures/StructureDefinition/cqfm-isTestCase",
            "valueBoolean": true
          }
        ],
        "status": "complete",
        "type": "individual",
        "measure": "https://madie.cms.gov/Measure/SevereObstetricComplicationsFHIR",
        "period": {
          "start": "2024-01-01",
          "end": "2024-12-31"
        },
        "group": [
          {
            "population": [
              {
                "code": {
                  "coding": [
                    {
                      "system": "http://terminology.hl7.org/CodeSystem/measure-population",
                      "code": "initial-population",
                      "display": "Initial Population"
                    }
                  ]
                },
                "count": 1
              },
              {
                "code": {
                  "coding": [
                    {
                      "system": "http://terminology.hl7.org/CodeSystem/measure-population",
                      "code": "denominator",
                      "display": "Denominator"
                    }
                  ]
                },
                "count": 1
              },
              {
                "code": {
                  "coding": [
                    {
                      "system": "http://terminology.hl7.org/CodeSystem/measure-population",
                      "code": "denominator-exclusion",
                      "display": "Denominator Exclusion"
                    }
                  ]
                },
                "count": 0
              },
              {
                "code": {
                  "coding": [
                    {
                      "system": "http://terminology.hl7.org/CodeSystem/measure-population",
                      "code": "numerator",
                      "display": "Numerator"
                    }
                  ]
                },
                "count": 0
              }
            ]
          }
        ],
        "evaluatedResource": [
          {
            "reference": "Patient/26e2a12e-2913-49e6-b9ae-e02ebd752b86"
          },
          {
            "reference": "Encounter/a1788a21-3595-4599-acc2-6fe94d7e5b90"
          },
          {
            "reference": "Procedure/8b3c2680-ba96-4116-8683-bdf57b6d2fa5"
          },
          {
            "reference": "Observation/a6fe29b9-623e-4e6b-b2ae-d4f776f068a8"
          },
          {
            "reference": "Observation/e5dc1899-cdbc-48ca-9b6d-34625bc7eb3f"
          },
          {
            "reference": "Coverage/8cd77b7e-dba3-4b80-a71a-a7a7be4b7ba3"
          },
          {
            "reference": "Organization/0d8850a8-a296-49f7-828e-d63531370493"
          },
          {
            "reference": "Practitioner/73f23f71-8b1a-4df8-b148-35cb6344506d"
          }
        ]
      },
      "request": {
        "method": "PUT",
        "url": "MeasureReport/91d9e509-350f-4ea7-88ac-d4a9ae79f4fb"
      }
    }
  ]
}