{
  "resourceType": "Bundle",
  "id": "6129134102c62a011f2e6b63",
  "type": "transaction",
  "entry": [
    {
      "fullUrl": "https://madie.cms.gov/Patient/c8314abe-599d-4627-9477-aff68cfae027",
      "resource": {
        "resourceType": "Patient",
        "id": "c8314abe-599d-4627-9477-aff68cfae027",
        "meta": {
          "profile": [
            "http://hl7.org/fhir/us/qicore/StructureDefinition/qicore-patient"
          ]
        },
        "text": {
          "status": "generated",
          "div": "<div xmlns=\"http://www.w3.org/1999/xhtml\"><div class=\"hapiHeaderText\">AntiThrpNotgivenDischarge <b>DENEXCEPFAIL </b></div><table class=\"hapiPropertyTable\"><tbody><tr><td>Identifier</td><td>293fb1fd3bc833ae97dde55abf9f00ff</td></tr><tr><td>Date of birth</td><td><span>31 May 1990</span></td></tr></tbody></table></div>"
        },
        "extension": [
          {
            "url": "http://hl7.org/fhir/us/core/StructureDefinition/us-core-race",
            "extension": [
              {
                "url": "ombCategory",
                "valueCoding": {
                  "system": "urn:oid:2.16.840.1.113883.6.238",
                  "code": "1002-5",
                  "display": "American Indian or Alaska Native",
                  "userSelected": true
                }
              },
              {
                "url": "text",
                "valueString": "American Indian or Alaska Native"
              }
            ]
          },
          {
            "url": "http://hl7.org/fhir/us/core/StructureDefinition/us-core-ethnicity",
            "extension": [
              {
                "url": "ombCategory",
                "valueCoding": {
                  "system": "urn:oid:2.16.840.1.113883.6.238",
                  "code": "2135-2",
                  "display": "Hispanic or Latino",
                  "userSelected": true
                }
              },
              {
                "url": "text",
                "valueString": "Hispanic or Latino"
              }
            ]
          }
        ],
        "identifier": [
          {
            "type": {
              "coding": [
                {
                  "system": "http://terminology.hl7.org/CodeSystem/v2-0203",
                  "code": "MR"
                }
              ]
            },
            "system": "https://bonnie-fhir.healthit.gov/",
            "value": "6129134102c62a011f2e6b63"
          }
        ],
        "active": true,
        "name": [
          {
            "use": "usual",
            "family": "DENEXCEPFail",
            "given": [
              "AntiThrpNotgivenDischarge"
            ]
          }
        ],
        "gender": "male",
        "birthDate": "1990-05-31"
      },
      "request": {
        "method": "PUT",
        "url": "Patient/c8314abe-599d-4627-9477-aff68cfae027"
      }
    },
    {
      "fullUrl": "https://madie.cms.gov/Encounter/77dc8048-d485-4493-aa2f-7d632b528858",
      "resource": {
        "resourceType": "Encounter",
        "id": "77dc8048-d485-4493-aa2f-7d632b528858",
        "meta": {
          "profile": [
            "http://hl7.org/fhir/us/qicore/StructureDefinition/qicore-encounter"
          ]
        },
        "status": "finished",
        "class": {
          "system": "http://terminology.hl7.org/CodeSystem/v3-ActCode",
          "code": "IMP",
          "display": "inpatient encounter",
          "userSelected": true
        },
        "type": [
          {
            "coding": [
              {
                "system": "http://snomed.info/sct",
                "code": "32485007"
              }
            ]
          }
        ],
        "subject": {
          "reference": "Patient/c8314abe-599d-4627-9477-aff68cfae027"
        },
        "period": {
          "start": "2025-06-15T09:30:00.000+00:00",
          "end": "2025-10-12T10:30:00.000+00:00"
        },
        "length": {
          "value": 119,
          "unit": "days"
        },
        "diagnosis": [
          {
            "condition": {
              "reference": "Condition/2ec640d7-6a80-4a96-a53f-b59ab1fb7f4a"
            },
            "use": {
              "coding": [
                {
                  "system": "http://terminology.hl7.org/CodeSystem/diagnosis-role",
                  "code": "billing",
                  "display": "Billing"
                }
              ]
            },
            "rank": 1
          }
        ]
      },
      "request": {
        "method": "PUT",
        "url": "Encounter/77dc8048-d485-4493-aa2f-7d632b528858"
      }
    },
    {
      "fullUrl": "https://madie.cms.gov/Condition/2ec640d7-6a80-4a96-a53f-b59ab1fb7f4a",
      "resource": {
        "resourceType": "Condition",
        "id": "2ec640d7-6a80-4a96-a53f-b59ab1fb7f4a",
        "meta": {
          "profile": [
            "http://hl7.org/fhir/us/qicore/StructureDefinition/qicore-condition"
          ]
        },
        "clinicalStatus": {
          "coding": [
            {
              "system": "http://terminology.hl7.org/CodeSystem/condition-clinical",
              "code": "active"
            }
          ]
        },
        "verificationStatus": {
          "coding": [
            {
              "system": "http://terminology.hl7.org/CodeSystem/condition-ver-status",
              "code": "confirmed"
            }
          ]
        },
        "category": [
          {
            "coding": [
              {
                "system": "http://terminology.hl7.org/CodeSystem/condition-category",
                "code": "encounter-diagnosis",
                "display": "Encounter Diagnosis"
              }
            ]
          }
        ],
        "code": {
          "coding": [
            {
              "system": "http://snomed.info/sct",
              "version": "2020-09",
              "code": "111297002",
              "display": "Nonparalytic stroke (disorder)",
              "userSelected": true
            }
          ]
        },
        "subject": {
          "reference": "Patient/c8314abe-599d-4627-9477-aff68cfae027"
        },
        "recordedDate": "2025-07-13T08:00:00.000+00:00"
      },
      "request": {
        "method": "PUT",
        "url": "Condition/2ec640d7-6a80-4a96-a53f-b59ab1fb7f4a"
      }
    },
    {
      "fullUrl": "https://madie.cms.gov/Coverage/be6ffaa8-5e0f-48ab-a3f6-fcc01d54a131",
      "resource": {
        "resourceType": "Coverage",
        "id": "be6ffaa8-5e0f-48ab-a3f6-fcc01d54a131",
        "meta": {
          "profile": [
            "http://hl7.org/fhir/us/qicore/StructureDefinition/qicore-coverage"
          ]
        },
        "status": "active",
        "type": {
          "coding": [
            {
              "system": "https://nahdo.org/sopt",
              "code": "1",
              "display": "MEDICARE"
            }
          ]
        },
        "beneficiary": {
          "reference": "Patient/c8314abe-599d-4627-9477-aff68cfae027"
        },
        "payor": [
          {
            "reference": "Organization/e48a74bc-5bb7-41c6-a09b-e2e071369ef0"
          }
        ]
      },
      "request": {
        "method": "PUT",
        "url": "Coverage/be6ffaa8-5e0f-48ab-a3f6-fcc01d54a131"
      }
    },
    {
      "fullUrl": "https://madie.cms.gov/Organization/e48a74bc-5bb7-41c6-a09b-e2e071369ef0",
      "resource": {
        "resourceType": "Organization",
        "id": "e48a74bc-5bb7-41c6-a09b-e2e071369ef0",
        "meta": {
          "profile": [
            "http://hl7.org/fhir/us/qicore/StructureDefinition/qicore-organization"
          ]
        },
        "identifier": [
          {
            "use": "temp",
            "system": "urn:oid:2.16.840.1.113883.4.4",
            "value": "21-3259825"
          }
        ],
        "active": true,
        "type": [
          {
            "coding": [
              {
                "system": "http://terminology.hl7.org/CodeSystem/organization-type",
                "code": "pay",
                "display": "Payer"
              }
            ]
          }
        ],
        "name": "Blue Cross Blue Shield of Texas",
        "telecom": [
          {
            "system": "phone",
            "value": "(+1) 972-766-6900"
          }
        ],
        "address": [
          {
            "use": "billing",
            "type": "postal",
            "line": [
              "P.O. Box 660044"
            ],
            "city": "Dallas",
            "state": "TX",
            "postalCode": "75266-0044",
            "country": "USA"
          }
        ]
      },
      "request": {
        "method": "PUT",
        "url": "Organization/e48a74bc-5bb7-41c6-a09b-e2e071369ef0"
      }
    },
    {
      "fullUrl": "https://madie.cms.gov/MeasureReport/2d558309-1994-4ea4-922f-3efa6467548a",
      "resource": {
        "resourceType": "MeasureReport",
        "id": "2d558309-1994-4ea4-922f-3efa6467548a",
        "meta": {
          "profile": [
            "http://hl7.org/fhir/us/cqfmeasures/StructureDefinition/test-case-cqfm"
          ]
        },
        "contained": [
          {
            "resourceType": "Parameters",
            "id": "d7508b77-ab04-44b5-b0fb-185ea3af4c2f-parameters",
            "parameter": [
              {
                "name": "subject",
                "valueString": "c8314abe-599d-4627-9477-aff68cfae027"
              }
            ]
          }
        ],
        "extension": [
          {
            "url": "http://hl7.org/fhir/us/cqfmeasures/StructureDefinition/cqfm-inputParameters",
            "valueReference": {
              "reference": "#d7508b77-ab04-44b5-b0fb-185ea3af4c2f-parameters"
            }
          },
          {
            "url": "http://hl7.org/fhir/us/cqfmeasures/StructureDefinition/cqfm-testCaseDescription",
            "valueMarkdown": "Patient is GT 18 with Non-Elective Inpatient Encounter (LOS 120 days) with principal diagnosis of ischemic stroke  and did not received antithrombotic during IP encounter and did not have a reason why.  negative test for negation rationale."
          }
        ],
        "modifierExtension": [
          {
            "url": "http://hl7.org/fhir/us/cqfmeasures/StructureDefinition/cqfm-isTestCase",
            "valueBoolean": true
          }
        ],
        "status": "complete",
        "type": "individual",
        "measure": "https://madie.cms.gov/Measure/DischargedonAntithromboticTherapyFHIR",
        "period": {
          "start": "2025-01-01",
          "end": "2025-12-31"
        },
        "group": [
          {
            "population": [
              {
                "code": {
                  "coding": [
                    {
                      "system": "http://terminology.hl7.org/CodeSystem/measure-population",
                      "code": "initial-population",
                      "display": "Initial Population"
                    }
                  ]
                },
                "count": 1
              },
              {
                "code": {
                  "coding": [
                    {
                      "system": "http://terminology.hl7.org/CodeSystem/measure-population",
                      "code": "denominator",
                      "display": "Denominator"
                    }
                  ]
                },
                "count": 1
              },
              {
                "code": {
                  "coding": [
                    {
                      "system": "http://terminology.hl7.org/CodeSystem/measure-population",
                      "code": "denominator-exclusion",
                      "display": "Denominator Exclusion"
                    }
                  ]
                },
                "count": 0
              },
              {
                "code": {
                  "coding": [
                    {
                      "system": "http://terminology.hl7.org/CodeSystem/measure-population",
                      "code": "numerator",
                      "display": "Numerator"
                    }
                  ]
                },
                "count": 0
              },
              {
                "code": {
                  "coding": [
                    {
                      "system": "http://terminology.hl7.org/CodeSystem/measure-population",
                      "code": "denominator-exception",
                      "display": "Denominator Exception"
                    }
                  ]
                },
                "count": 0
              }
            ]
          }
        ],
        "evaluatedResource": [
          {
            "reference": "Patient/c8314abe-599d-4627-9477-aff68cfae027"
          },
          {
            "reference": "Encounter/77dc8048-d485-4493-aa2f-7d632b528858"
          },
          {
            "reference": "Condition/2ec640d7-6a80-4a96-a53f-b59ab1fb7f4a"
          },
          {
            "reference": "Coverage/be6ffaa8-5e0f-48ab-a3f6-fcc01d54a131"
          },
          {
            "reference": "Organization/e48a74bc-5bb7-41c6-a09b-e2e071369ef0"
          }
        ]
      },
      "request": {
        "method": "PUT",
        "url": "MeasureReport/2d558309-1994-4ea4-922f-3efa6467548a"
      }
    }
  ]
}