{
  "resourceType": "Bundle",
  "id": "633b3f9e0968f80122503cc3",
  "type": "transaction",
  "entry": [
    {
      "fullUrl": "https://madie.cms.gov/Patient/18704d43-b887-4fd8-b9c1-c0b22605afa1",
      "resource": {
        "resourceType": "Patient",
        "id": "18704d43-b887-4fd8-b9c1-c0b22605afa1",
        "meta": {
          "profile": [
            "http://hl7.org/fhir/us/qicore/StructureDefinition/qicore-patient"
          ]
        },
        "text": {
          "status": "generated",
          "div": "<div xmlns=\"http://www.w3.org/1999/xhtml\"><div class=\"hapiHeaderText\">DelProcStart=EncStart <b>IPPASS </b></div><table class=\"hapiPropertyTable\"><tbody><tr><td>Date of birth</td><td><span>31 January 2004</span></td></tr></tbody></table></div>"
        },
        "extension": [
          {
            "url": "http://hl7.org/fhir/us/core/StructureDefinition/us-core-race",
            "extension": [
              {
                "url": "ombCategory",
                "valueCoding": {
                  "system": "urn:oid:2.16.840.1.113883.6.238",
                  "code": "1002-5",
                  "display": "American Indian or Alaska Native",
                  "userSelected": true
                }
              },
              {
                "url": "text",
                "valueString": "American Indian or Alaska Native"
              }
            ]
          },
          {
            "url": "http://hl7.org/fhir/us/core/StructureDefinition/us-core-ethnicity",
            "extension": [
              {
                "url": "ombCategory",
                "valueCoding": {
                  "system": "urn:oid:2.16.840.1.113883.6.238",
                  "code": "2135-2",
                  "display": "Hispanic or Latino",
                  "userSelected": true
                }
              },
              {
                "url": "text",
                "valueString": "Hispanic or Latino"
              }
            ]
          }
        ],
        "identifier": [
          {
            "type": {
              "coding": [
                {
                  "system": "http://terminology.hl7.org/CodeSystem/v2-0203",
                  "code": "MR"
                }
              ]
            },
            "system": "https://bonnie-fhir.healthit.gov/",
            "value": "633b3f9e0968f80122503cc3"
          }
        ],
        "active": true,
        "name": [
          {
            "use": "usual",
            "family": "IPPass",
            "given": [
              "DelProcStart_EncStart"
            ]
          }
        ],
        "gender": "female",
        "birthDate": "2004-01-31"
      },
      "request": {
        "method": "PUT",
        "url": "Patient/18704d43-b887-4fd8-b9c1-c0b22605afa1"
      }
    },
    {
      "fullUrl": "https://madie.cms.gov/Encounter/9e41fb36-c561-491a-87f9-ba01a61d11dd",
      "resource": {
        "resourceType": "Encounter",
        "id": "9e41fb36-c561-491a-87f9-ba01a61d11dd",
        "meta": {
          "profile": [
            "http://hl7.org/fhir/us/qicore/StructureDefinition/qicore-encounter"
          ]
        },
        "status": "finished",
        "class": {
          "system": "http://terminology.hl7.org/CodeSystem/v3-ActCode",
          "code": "IMP",
          "display": "inpatient encounter"
        },
        "type": [
          {
            "coding": [
              {
                "system": "http://snomed.info/sct",
                "code": "183452005"
              }
            ]
          }
        ],
        "subject": {
          "reference": "Patient/18704d43-b887-4fd8-b9c1-c0b22605afa1"
        },
        "period": {
          "start": "2024-02-01T08:00:00.000Z",
          "end": "2024-02-05T08:15:00.000Z"
        }
      },
      "request": {
        "method": "PUT",
        "url": "Encounter/9e41fb36-c561-491a-87f9-ba01a61d11dd"
      }
    },
    {
      "fullUrl": "https://madie.cms.gov/Procedure/c68d64be-4aab-48ec-ad91-961dc48522b0",
      "resource": {
        "resourceType": "Procedure",
        "id": "c68d64be-4aab-48ec-ad91-961dc48522b0",
        "meta": {
          "profile": [
            "http://hl7.org/fhir/us/qicore/StructureDefinition/qicore-procedure"
          ]
        },
        "extension": [
          {
            "url": "http://hl7.org/fhir/us/qicore/StructureDefinition/qicore-recorded",
            "valueDateTime": "2013-04-05T09:35:00-04:00"
          }
        ],
        "status": "completed",
        "code": {
          "coding": [
            {
              "system": "http://snomed.info/sct",
              "code": "10745001"
            }
          ]
        },
        "subject": {
          "reference": "Patient/18704d43-b887-4fd8-b9c1-c0b22605afa1"
        },
        "performedPeriod": {
          "start": "2024-02-01T08:00:00.000Z",
          "end": "2024-02-05T08:15:00.000Z"
        }
      },
      "request": {
        "method": "PUT",
        "url": "Procedure/c68d64be-4aab-48ec-ad91-961dc48522b0"
      }
    },
    {
      "fullUrl": "https://madie.cms.gov/Coverage/1c462168-033d-4da7-9810-c321485550af",
      "resource": {
        "resourceType": "Coverage",
        "id": "1c462168-033d-4da7-9810-c321485550af",
        "meta": {
          "profile": [
            "http://hl7.org/fhir/us/qicore/StructureDefinition/qicore-coverage"
          ]
        },
        "status": "active",
        "beneficiary": {
          "reference": "Patient/18704d43-b887-4fd8-b9c1-c0b22605afa1"
        },
        "payor": [
          {
            "reference": "Organization/3305b26e-34a3-4b28-9d31-6bd8ca913f29"
          }
        ]
      },
      "request": {
        "method": "PUT",
        "url": "Coverage/1c462168-033d-4da7-9810-c321485550af"
      }
    },
    {
      "fullUrl": "https://madie.cms.gov/Organization/3305b26e-34a3-4b28-9d31-6bd8ca913f29",
      "resource": {
        "resourceType": "Organization",
        "id": "3305b26e-34a3-4b28-9d31-6bd8ca913f29",
        "meta": {
          "profile": [
            "http://hl7.org/fhir/us/qicore/StructureDefinition/qicore-organization"
          ]
        },
        "identifier": [
          {
            "use": "temp",
            "system": "urn:oid:2.16.840.1.113883.4.4",
            "value": "21-3259825"
          }
        ],
        "active": true,
        "type": [
          {
            "coding": [
              {
                "system": "http://terminology.hl7.org/CodeSystem/organization-type",
                "code": "pay",
                "display": "Payer"
              }
            ]
          }
        ],
        "name": "Blue Cross Blue Shield of Texas",
        "telecom": [
          {
            "system": "phone",
            "value": "(+1) 972-766-6900"
          }
        ],
        "address": [
          {
            "use": "billing",
            "type": "postal",
            "line": [
              "P.O. Box 660044"
            ],
            "city": "Dallas",
            "state": "TX",
            "postalCode": "75266-0044",
            "country": "USA"
          }
        ]
      },
      "request": {
        "method": "PUT",
        "url": "Organization/3305b26e-34a3-4b28-9d31-6bd8ca913f29"
      }
    },
    {
      "fullUrl": "https://madie.cms.gov/Practitioner/c5d71b4c-1a0e-4bdf-9720-3f2492d5d2ba",
      "resource": {
        "resourceType": "Practitioner",
        "id": "c5d71b4c-1a0e-4bdf-9720-3f2492d5d2ba",
        "identifier": [
          {
            "system": "http://hl7.org/fhir/sid/us-npi",
            "value": "123456"
          }
        ],
        "name": [
          {
            "family": "Evil",
            "prefix": [
              "Dr"
            ]
          }
        ]
      },
      "request": {
        "method": "PUT",
        "url": "Practitioner/c5d71b4c-1a0e-4bdf-9720-3f2492d5d2ba"
      }
    },
    {
      "fullUrl": "https://madie.cms.gov/MeasureReport/8d0bf76b-76c4-4b9d-9092-2f8e3220ed3c",
      "resource": {
        "resourceType": "MeasureReport",
        "id": "8d0bf76b-76c4-4b9d-9092-2f8e3220ed3c",
        "meta": {
          "profile": [
            "http://hl7.org/fhir/us/cqfmeasures/StructureDefinition/test-case-cqfm"
          ]
        },
        "contained": [
          {
            "resourceType": "Parameters",
            "id": "373f4c25-1ed4-405d-b75b-8734267aa659-parameters",
            "parameter": [
              {
                "name": "subject",
                "valueString": "18704d43-b887-4fd8-b9c1-c0b22605afa1"
              }
            ]
          }
        ],
        "extension": [
          {
            "url": "http://hl7.org/fhir/us/cqfmeasures/StructureDefinition/cqfm-inputParameters",
            "valueReference": {
              "reference": "#373f4c25-1ed4-405d-b75b-8734267aa659-parameters"
            }
          },
          {
            "url": "http://hl7.org/fhir/us/cqfmeasures/StructureDefinition/cqfm-testCaseDescription",
            "valueMarkdown": "Delivery procedure start equals encounter start\n"
          }
        ],
        "modifierExtension": [
          {
            "url": "http://hl7.org/fhir/us/cqfmeasures/StructureDefinition/cqfm-isTestCase",
            "valueBoolean": true
          }
        ],
        "status": "complete",
        "type": "individual",
        "measure": "https://madie.cms.gov/Measure/SevereObstetricComplicationsFHIR",
        "period": {
          "start": "2024-01-01",
          "end": "2024-12-31"
        },
        "group": [
          {
            "population": [
              {
                "code": {
                  "coding": [
                    {
                      "system": "http://terminology.hl7.org/CodeSystem/measure-population",
                      "code": "initial-population",
                      "display": "Initial Population"
                    }
                  ]
                },
                "count": 1
              },
              {
                "code": {
                  "coding": [
                    {
                      "system": "http://terminology.hl7.org/CodeSystem/measure-population",
                      "code": "denominator",
                      "display": "Denominator"
                    }
                  ]
                },
                "count": 0
              },
              {
                "code": {
                  "coding": [
                    {
                      "system": "http://terminology.hl7.org/CodeSystem/measure-population",
                      "code": "denominator-exclusion",
                      "display": "Denominator Exclusion"
                    }
                  ]
                },
                "count": 0
              },
              {
                "code": {
                  "coding": [
                    {
                      "system": "http://terminology.hl7.org/CodeSystem/measure-population",
                      "code": "numerator",
                      "display": "Numerator"
                    }
                  ]
                },
                "count": 0
              }
            ]
          }
        ],
        "evaluatedResource": [
          {
            "reference": "Patient/18704d43-b887-4fd8-b9c1-c0b22605afa1"
          },
          {
            "reference": "Encounter/9e41fb36-c561-491a-87f9-ba01a61d11dd"
          },
          {
            "reference": "Procedure/c68d64be-4aab-48ec-ad91-961dc48522b0"
          },
          {
            "reference": "Coverage/1c462168-033d-4da7-9810-c321485550af"
          },
          {
            "reference": "Organization/3305b26e-34a3-4b28-9d31-6bd8ca913f29"
          },
          {
            "reference": "Practitioner/c5d71b4c-1a0e-4bdf-9720-3f2492d5d2ba"
          }
        ]
      },
      "request": {
        "method": "PUT",
        "url": "MeasureReport/8d0bf76b-76c4-4b9d-9092-2f8e3220ed3c"
      }
    }
  ]
}