{
  "resourceType": "Bundle",
  "id": "DENEXPass-HospiceDiagnosisStartsDuringMP",
  "type": "transaction",
  "entry": [
    {
      "fullUrl": "https://madie.cms.gov/Patient/62ce076a-1ec7-428a-8f20-0ee957756929",
      "resource": {
        "resourceType": "Patient",
        "id": "62ce076a-1ec7-428a-8f20-0ee957756929",
        "meta": {
          "profile": [
            "http://hl7.org/fhir/us/qicore/StructureDefinition/qicore-patient"
          ]
        },
        "extension": [
          {
            "url": "http://hl7.org/fhir/us/core/StructureDefinition/us-core-race",
            "extension": [
              {
                "url": "ombCategory",
                "valueCoding": {
                  "system": "urn:oid:2.16.840.1.113883.6.238",
                  "code": "2028-9",
                  "display": "Asian"
                }
              },
              {
                "url": "text",
                "valueString": "Asian"
              }
            ]
          },
          {
            "url": "http://hl7.org/fhir/us/core/StructureDefinition/us-core-ethnicity",
            "extension": [
              {
                "url": "ombCategory",
                "valueCoding": {
                  "system": "urn:oid:2.16.840.1.113883.6.238",
                  "code": "2135-2",
                  "display": "Hispanic or Latino"
                }
              },
              {
                "url": "text",
                "valueString": "Hispanic or Latino"
              }
            ]
          }
        ],
        "identifier": [
          {
            "system": "http://hospital.smarthealthit.org",
            "value": "999999995"
          }
        ],
        "name": [
          {
            "family": "Bertha",
            "given": [
              "Betty"
            ]
          }
        ],
        "gender": "female",
        "birthDate": "2005-01-01"
      },
      "request": {
        "method": "PUT",
        "url": "Patient/62ce076a-1ec7-428a-8f20-0ee957756929"
      }
    },
    {
      "fullUrl": "https://madie.cms.gov/Encounter/e3dd07db-255a-4364-8b3d-6e2ee7aacd55",
      "resource": {
        "resourceType": "Encounter",
        "id": "e3dd07db-255a-4364-8b3d-6e2ee7aacd55",
        "meta": {
          "profile": [
            "http://hl7.org/fhir/us/qicore/StructureDefinition/qicore-encounter"
          ]
        },
        "status": "finished",
        "class": {
          "system": "http://terminology.hl7.org/CodeSystem/v3-ActCode",
          "code": "AMB",
          "display": "ambulatory"
        },
        "type": [
          {
            "coding": [
              {
                "system": "http://www.ada.org/cdt",
                "code": "D0120",
                "display": "periodic oral evaluation - established patient"
              }
            ]
          }
        ],
        "subject": {
          "reference": "Patient/62ce076a-1ec7-428a-8f20-0ee957756929"
        },
        "period": {
          "start": "2025-01-01T00:00:00.000Z",
          "end": "2025-01-01T01:15:00.000Z"
        }
      },
      "request": {
        "method": "PUT",
        "url": "Encounter/e3dd07db-255a-4364-8b3d-6e2ee7aacd55"
      }
    },
    {
      "fullUrl": "https://madie.cms.gov/Condition/a39ec3a9-cf08-4304-a2ce-4f3f554c7dcb",
      "resource": {
        "resourceType": "Condition",
        "id": "a39ec3a9-cf08-4304-a2ce-4f3f554c7dcb",
        "meta": {
          "profile": [
            "http://hl7.org/fhir/us/qicore/StructureDefinition/qicore-condition"
          ]
        },
        "clinicalStatus": {
          "coding": [
            {
              "system": "http://terminology.hl7.org/CodeSystem/condition-clinical",
              "code": "active"
            }
          ]
        },
        "category": [
          {
            "coding": [
              {
                "system": "http://terminology.hl7.org/CodeSystem/condition-category",
                "code": "problem-list-item",
                "display": "Problem List Item"
              }
            ]
          }
        ],
        "code": {
          "coding": [
            {
              "system": "http://snomed.info/sct",
              "code": "170935008",
              "display": "Full care by hospice (finding)"
            }
          ]
        },
        "subject": {
          "reference": "Patient/62ce076a-1ec7-428a-8f20-0ee957756929"
        },
        "onsetDateTime": "2025-01-01T00:00:00.000Z"
      },
      "request": {
        "method": "PUT",
        "url": "Condition/a39ec3a9-cf08-4304-a2ce-4f3f554c7dcb"
      }
    },
    {
      "fullUrl": "https://madie.cms.gov/MeasureReport/195360b0-23a6-4711-a3a3-0271e2292773",
      "resource": {
        "resourceType": "MeasureReport",
        "id": "195360b0-23a6-4711-a3a3-0271e2292773",
        "meta": {
          "profile": [
            "http://hl7.org/fhir/us/cqfmeasures/StructureDefinition/test-case-cqfm"
          ]
        },
        "contained": [
          {
            "resourceType": "Parameters",
            "id": "a932251c-4f60-44d8-a3a9-a335a0d8537d-parameters",
            "parameter": [
              {
                "name": "subject",
                "valueString": "62ce076a-1ec7-428a-8f20-0ee957756929"
              }
            ]
          }
        ],
        "extension": [
          {
            "url": "http://hl7.org/fhir/us/cqfmeasures/StructureDefinition/cqfm-inputParameters",
            "valueReference": {
              "reference": "#a932251c-4f60-44d8-a3a9-a335a0d8537d-parameters"
            }
          },
          {
            "url": "http://hl7.org/fhir/us/cqfmeasures/StructureDefinition/cqfm-testCaseDescription",
            "valueMarkdown": "Hospice Condition - For meeting 100% coverage"
          }
        ],
        "modifierExtension": [
          {
            "url": "http://hl7.org/fhir/us/cqfmeasures/StructureDefinition/cqfm-isTestCase",
            "valueBoolean": true
          }
        ],
        "status": "complete",
        "type": "individual",
        "measure": "https://madie.cms.gov/Measure/PrimaryCariesPreventionasOfferedbyDentistsFHIR",
        "period": {
          "start": "2025-01-01",
          "end": "2025-12-31"
        },
        "group": [
          {
            "population": [
              {
                "code": {
                  "coding": [
                    {
                      "system": "http://terminology.hl7.org/CodeSystem/measure-population",
                      "code": "initial-population",
                      "display": "Initial Population"
                    }
                  ]
                },
                "count": 1
              },
              {
                "code": {
                  "coding": [
                    {
                      "system": "http://terminology.hl7.org/CodeSystem/measure-population",
                      "code": "denominator",
                      "display": "Denominator"
                    }
                  ]
                },
                "count": 1
              },
              {
                "code": {
                  "coding": [
                    {
                      "system": "http://terminology.hl7.org/CodeSystem/measure-population",
                      "code": "denominator-exclusion",
                      "display": "Denominator Exclusion"
                    }
                  ]
                },
                "count": 1
              },
              {
                "code": {
                  "coding": [
                    {
                      "system": "http://terminology.hl7.org/CodeSystem/measure-population",
                      "code": "numerator",
                      "display": "Numerator"
                    }
                  ]
                },
                "count": 0
              }
            ]
          }
        ],
        "evaluatedResource": [
          {
            "reference": "Patient/62ce076a-1ec7-428a-8f20-0ee957756929"
          },
          {
            "reference": "Encounter/e3dd07db-255a-4364-8b3d-6e2ee7aacd55"
          },
          {
            "reference": "Condition/a39ec3a9-cf08-4304-a2ce-4f3f554c7dcb"
          }
        ]
      },
      "request": {
        "method": "PUT",
        "url": "MeasureReport/195360b0-23a6-4711-a3a3-0271e2292773"
      }
    }
  ]
}