{
  "resourceType": "Bundle",
  "id": "63594c7a6aee9629c82981df",
  "type": "transaction",
  "entry": [
    {
      "fullUrl": "https://madie.cms.gov/Patient/8aa40b9f-a732-4d47-b9f0-e3ec39453e92",
      "resource": {
        "resourceType": "Patient",
        "id": "8aa40b9f-a732-4d47-b9f0-e3ec39453e92",
        "meta": {
          "profile": [
            "http://hl7.org/fhir/us/qicore/StructureDefinition/qicore-patient"
          ]
        },
        "text": {
          "status": "generated",
          "div": "<div xmlns=\"http://www.w3.org/1999/xhtml\"><div class=\"hapiHeaderText\">Risk_SeverePreEclampsia <b>RISKPass </b></div><table class=\"hapiPropertyTable\"><tbody><tr><td>Date of birth</td><td><span>01 February 2004</span></td></tr></tbody></table></div>"
        },
        "extension": [
          {
            "url": "http://hl7.org/fhir/us/core/StructureDefinition/us-core-race",
            "extension": [
              {
                "url": "ombCategory",
                "valueCoding": {
                  "system": "urn:oid:2.16.840.1.113883.6.238",
                  "code": "1002-5",
                  "display": "American Indian or Alaska Native",
                  "userSelected": true
                }
              },
              {
                "url": "text",
                "valueString": "American Indian or Alaska Native"
              }
            ]
          },
          {
            "url": "http://hl7.org/fhir/us/core/StructureDefinition/us-core-ethnicity",
            "extension": [
              {
                "url": "ombCategory",
                "valueCoding": {
                  "system": "urn:oid:2.16.840.1.113883.6.238",
                  "code": "2135-2",
                  "display": "Hispanic or Latino",
                  "userSelected": true
                }
              },
              {
                "url": "text",
                "valueString": "Hispanic or Latino"
              }
            ]
          }
        ],
        "identifier": [
          {
            "type": {
              "coding": [
                {
                  "system": "http://terminology.hl7.org/CodeSystem/v2-0203",
                  "code": "MR"
                }
              ]
            },
            "system": "https://bonnie-fhir.healthit.gov/",
            "value": "63594c7a6aee9629c82981df"
          }
        ],
        "active": true,
        "name": [
          {
            "use": "usual",
            "family": "RiskPass",
            "given": [
              "Risk_SeverePreEclampsia"
            ]
          }
        ],
        "gender": "female",
        "birthDate": "2004-02-01"
      },
      "request": {
        "method": "PUT",
        "url": "Patient/8aa40b9f-a732-4d47-b9f0-e3ec39453e92"
      }
    },
    {
      "fullUrl": "https://madie.cms.gov/Observation/f110cb16-2cd8-4679-9856-8f0c059a94a7",
      "resource": {
        "resourceType": "Observation",
        "id": "f110cb16-2cd8-4679-9856-8f0c059a94a7",
        "meta": {
          "profile": [
            "http://hl7.org/fhir/us/qicore/StructureDefinition/qicore-observation"
          ]
        },
        "status": "final",
        "category": [
          {
            "coding": [
              {
                "system": "http://terminology.hl7.org/CodeSystem/observation-category",
                "code": "exam",
                "display": "exam",
                "userSelected": true
              }
            ]
          }
        ],
        "code": {
          "coding": [
            {
              "system": "http://loinc.org",
              "code": "93857-1"
            }
          ]
        },
        "subject": {
          "reference": "Patient/8aa40b9f-a732-4d47-b9f0-e3ec39453e92"
        },
        "effectiveDateTime": "2024-02-01T08:00:00.000+00:00",
        "valueDateTime": "2024-02-01T08:00:00+00:00"
      },
      "request": {
        "method": "PUT",
        "url": "Observation/f110cb16-2cd8-4679-9856-8f0c059a94a7"
      }
    },
    {
      "fullUrl": "https://madie.cms.gov/Observation/391bd487-aa76-496c-be88-25524fb17925",
      "resource": {
        "resourceType": "Observation",
        "id": "391bd487-aa76-496c-be88-25524fb17925",
        "meta": {
          "profile": [
            "http://hl7.org/fhir/us/qicore/StructureDefinition/qicore-observation"
          ]
        },
        "status": "final",
        "category": [
          {
            "coding": [
              {
                "system": "http://terminology.hl7.org/CodeSystem/observation-category",
                "code": "exam",
                "display": "exam",
                "userSelected": true
              }
            ]
          }
        ],
        "code": {
          "coding": [
            {
              "system": "http://loinc.org",
              "code": "11778-8"
            }
          ]
        },
        "subject": {
          "reference": "Patient/8aa40b9f-a732-4d47-b9f0-e3ec39453e92"
        },
        "effectiveDateTime": "2024-02-01T08:00:00.000+00:00",
        "valueDateTime": "2024-02-01T00:00:00.000+00:00"
      },
      "request": {
        "method": "PUT",
        "url": "Observation/391bd487-aa76-496c-be88-25524fb17925"
      }
    },
    {
      "fullUrl": "https://madie.cms.gov/Encounter/7df1ed2e-a265-4130-bb3e-34f001d9ba0b",
      "resource": {
        "resourceType": "Encounter",
        "id": "7df1ed2e-a265-4130-bb3e-34f001d9ba0b",
        "meta": {
          "profile": [
            "http://hl7.org/fhir/us/qicore/StructureDefinition/qicore-encounter"
          ]
        },
        "status": "finished",
        "class": {
          "system": "http://terminology.hl7.org/CodeSystem/v3-ActCode",
          "code": "IMP",
          "display": "inpatient encounter"
        },
        "type": [
          {
            "coding": [
              {
                "system": "http://snomed.info/sct",
                "code": "183452005"
              }
            ]
          }
        ],
        "subject": {
          "reference": "Patient/8aa40b9f-a732-4d47-b9f0-e3ec39453e92"
        },
        "period": {
          "start": "2024-02-01T08:00:00.000Z",
          "end": "2024-02-05T08:15:00.000Z"
        },
        "diagnosis": [
          {
            "extension": [
              {
                "url": "http://hl7.org/fhir/us/qicore/StructureDefinition/qicore-encounter-diagnosisPresentOnAdmission",
                "valueCodeableConcept": {
                  "coding": [
                    {
                      "system": "https://www.cms.gov/Medicare/Medicare-Fee-for-Service-Payment/HospitalAcqCond/Coding",
                      "code": "Y"
                    }
                  ]
                }
              }
            ],
            "condition": {
              "reference": "Condition/f6c76f06-0cd6-4aec-b3d8-0090cf39cfbb"
            }
          },
          {
            "extension": [
              {
                "url": "http://hl7.org/fhir/us/qicore/StructureDefinition/qicore-encounter-diagnosisPresentOnAdmission",
                "valueCodeableConcept": {
                  "coding": [
                    {
                      "system": "https://www.cms.gov/Medicare/Medicare-Fee-for-Service-Payment/HospitalAcqCond/Coding",
                      "code": "N"
                    }
                  ]
                }
              }
            ],
            "condition": {
              "reference": "Condition/e876c303-fe0b-4e8b-9e98-309b2371fa56"
            }
          }
        ]
      },
      "request": {
        "method": "PUT",
        "url": "Encounter/7df1ed2e-a265-4130-bb3e-34f001d9ba0b"
      }
    },
    {
      "fullUrl": "https://madie.cms.gov/Procedure/7c97ab0f-e1f6-442d-aa61-a0dccbe7944e",
      "resource": {
        "resourceType": "Procedure",
        "id": "7c97ab0f-e1f6-442d-aa61-a0dccbe7944e",
        "meta": {
          "profile": [
            "http://hl7.org/fhir/us/qicore/StructureDefinition/qicore-procedure"
          ]
        },
        "extension": [
          {
            "url": "http://hl7.org/fhir/us/qicore/StructureDefinition/qicore-recorded",
            "valueDateTime": "2013-04-05T09:35:00-04:00"
          }
        ],
        "status": "completed",
        "code": {
          "coding": [
            {
              "system": "http://snomed.info/sct",
              "code": "10745001"
            }
          ]
        },
        "subject": {
          "reference": "Patient/8aa40b9f-a732-4d47-b9f0-e3ec39453e92"
        },
        "performedDateTime": "2024-02-01T08:00:00.000+00:00"
      },
      "request": {
        "method": "PUT",
        "url": "Procedure/7c97ab0f-e1f6-442d-aa61-a0dccbe7944e"
      }
    },
    {
      "fullUrl": "https://madie.cms.gov/Condition/e876c303-fe0b-4e8b-9e98-309b2371fa56",
      "resource": {
        "resourceType": "Condition",
        "id": "e876c303-fe0b-4e8b-9e98-309b2371fa56",
        "meta": {
          "profile": [
            "http://hl7.org/fhir/us/qicore/StructureDefinition/qicore-condition"
          ]
        },
        "category": [
          {
            "coding": [
              {
                "system": "http://terminology.hl7.org/CodeSystem/condition-category",
                "code": "encounter-diagnosis",
                "display": "Encounter Diagnosis"
              }
            ]
          }
        ],
        "code": {
          "coding": [
            {
              "system": "http://hl7.org/fhir/sid/icd-10-cm",
              "version": "2023",
              "code": "A32.7",
              "display": "Listerial sepsis",
              "userSelected": true
            }
          ]
        },
        "subject": {
          "reference": "Patient/8aa40b9f-a732-4d47-b9f0-e3ec39453e92"
        },
        "recordedDate": "2024-10-26T08:00:00.000+00:00"
      },
      "request": {
        "method": "PUT",
        "url": "Condition/e876c303-fe0b-4e8b-9e98-309b2371fa56"
      }
    },
    {
      "fullUrl": "https://madie.cms.gov/Condition/f6c76f06-0cd6-4aec-b3d8-0090cf39cfbb",
      "resource": {
        "resourceType": "Condition",
        "id": "f6c76f06-0cd6-4aec-b3d8-0090cf39cfbb",
        "meta": {
          "profile": [
            "http://hl7.org/fhir/us/qicore/StructureDefinition/qicore-condition"
          ]
        },
        "category": [
          {
            "coding": [
              {
                "system": "http://terminology.hl7.org/CodeSystem/condition-category",
                "code": "encounter-diagnosis",
                "display": "Encounter Diagnosis"
              }
            ]
          }
        ],
        "code": {
          "coding": [
            {
              "system": "http://hl7.org/fhir/sid/icd-10-cm",
              "version": "2023",
              "code": "O11.1",
              "display": "Severe PreEclampsia",
              "userSelected": true
            }
          ]
        },
        "subject": {
          "reference": "Patient/8aa40b9f-a732-4d47-b9f0-e3ec39453e92"
        },
        "recordedDate": "2024-10-26T08:00:00.000+00:00"
      },
      "request": {
        "method": "PUT",
        "url": "Condition/f6c76f06-0cd6-4aec-b3d8-0090cf39cfbb"
      }
    },
    {
      "fullUrl": "https://madie.cms.gov/MeasureReport/069aa77c-481a-4752-9c86-99ef2c7f6114",
      "resource": {
        "resourceType": "MeasureReport",
        "id": "069aa77c-481a-4752-9c86-99ef2c7f6114",
        "meta": {
          "profile": [
            "http://hl7.org/fhir/us/cqfmeasures/StructureDefinition/test-case-cqfm"
          ]
        },
        "contained": [
          {
            "resourceType": "Parameters",
            "id": "27c60e20-d75e-4124-b2d4-aad067186f07-parameters",
            "parameter": [
              {
                "name": "subject",
                "valueString": "8aa40b9f-a732-4d47-b9f0-e3ec39453e92"
              }
            ]
          }
        ],
        "extension": [
          {
            "url": "http://hl7.org/fhir/us/cqfmeasures/StructureDefinition/cqfm-inputParameters",
            "valueReference": {
              "reference": "#27c60e20-d75e-4124-b2d4-aad067186f07-parameters"
            }
          },
          {
            "url": "http://hl7.org/fhir/us/cqfmeasures/StructureDefinition/cqfm-testCaseDescription",
            "valueMarkdown": "Risk variable of severe pre-eclampsia.\n\n"
          }
        ],
        "modifierExtension": [
          {
            "url": "http://hl7.org/fhir/us/cqfmeasures/StructureDefinition/cqfm-isTestCase",
            "valueBoolean": true
          }
        ],
        "status": "complete",
        "type": "individual",
        "measure": "https://madie.cms.gov/Measure/SevereObstetricComplicationsFHIR",
        "period": {
          "start": "2024-01-01",
          "end": "2024-12-31"
        },
        "group": [
          {
            "population": [
              {
                "code": {
                  "coding": [
                    {
                      "system": "http://terminology.hl7.org/CodeSystem/measure-population",
                      "code": "initial-population",
                      "display": "Initial Population"
                    }
                  ]
                },
                "count": 1
              },
              {
                "code": {
                  "coding": [
                    {
                      "system": "http://terminology.hl7.org/CodeSystem/measure-population",
                      "code": "denominator",
                      "display": "Denominator"
                    }
                  ]
                },
                "count": 1
              },
              {
                "code": {
                  "coding": [
                    {
                      "system": "http://terminology.hl7.org/CodeSystem/measure-population",
                      "code": "denominator-exclusion",
                      "display": "Denominator Exclusion"
                    }
                  ]
                },
                "count": 0
              },
              {
                "code": {
                  "coding": [
                    {
                      "system": "http://terminology.hl7.org/CodeSystem/measure-population",
                      "code": "numerator",
                      "display": "Numerator"
                    }
                  ]
                },
                "count": 1
              }
            ]
          }
        ],
        "evaluatedResource": [
          {
            "reference": "Patient/8aa40b9f-a732-4d47-b9f0-e3ec39453e92"
          },
          {
            "reference": "Observation/f110cb16-2cd8-4679-9856-8f0c059a94a7"
          },
          {
            "reference": "Observation/391bd487-aa76-496c-be88-25524fb17925"
          },
          {
            "reference": "Encounter/7df1ed2e-a265-4130-bb3e-34f001d9ba0b"
          },
          {
            "reference": "Procedure/7c97ab0f-e1f6-442d-aa61-a0dccbe7944e"
          },
          {
            "reference": "Condition/e876c303-fe0b-4e8b-9e98-309b2371fa56"
          },
          {
            "reference": "Condition/f6c76f06-0cd6-4aec-b3d8-0090cf39cfbb"
          }
        ]
      },
      "request": {
        "method": "PUT",
        "url": "MeasureReport/069aa77c-481a-4752-9c86-99ef2c7f6114"
      }
    }
  ]
}