{
  "resourceType": "Bundle",
  "id": "63ec0968ccb3770120fe9d74",
  "type": "transaction",
  "entry": [
    {
      "fullUrl": "https://madie.cms.gov/Patient/0e890bae-051e-49a0-904e-eefe578ba696",
      "resource": {
        "resourceType": "Patient",
        "id": "0e890bae-051e-49a0-904e-eefe578ba696",
        "meta": {
          "profile": [
            "http://hl7.org/fhir/us/qicore/StructureDefinition/qicore-patient"
          ]
        },
        "text": {
          "status": "generated",
          "div": "<div xmlns=\"http://www.w3.org/1999/xhtml\"><div class=\"hapiHeaderText\">OnAdmit <b>HEMATPASS </b></div><table class=\"hapiPropertyTable\"><tbody><tr><td>Identifier</td><td>a3da21e0aa9acb035adc77fa116544b16013e74ef32aafc4f42a40ab71459966</td></tr><tr><td>Date of birth</td><td><span>15 June 1956</span></td></tr></tbody></table></div>"
        },
        "extension": [
          {
            "url": "http://hl7.org/fhir/us/core/StructureDefinition/us-core-race",
            "extension": [
              {
                "url": "ombCategory",
                "valueCoding": {
                  "system": "urn:oid:2.16.840.1.113883.6.238",
                  "code": "2106-3",
                  "display": "White",
                  "userSelected": true
                }
              },
              {
                "url": "text",
                "valueString": "White"
              }
            ]
          },
          {
            "url": "http://hl7.org/fhir/us/core/StructureDefinition/us-core-ethnicity",
            "extension": [
              {
                "url": "ombCategory",
                "valueCoding": {
                  "system": "urn:oid:2.16.840.1.113883.6.238",
                  "code": "2186-5",
                  "display": "Not Hispanic or Latino",
                  "userSelected": true
                }
              },
              {
                "url": "text",
                "valueString": "Not Hispanic or Latino"
              }
            ]
          }
        ],
        "identifier": [
          {
            "type": {
              "coding": [
                {
                  "system": "http://terminology.hl7.org/CodeSystem/v2-0203",
                  "code": "MR"
                }
              ]
            },
            "system": "https://bonnie-fhir.healthit.gov/",
            "value": "63ec0968ccb3770120fe9d74"
          }
        ],
        "active": true,
        "name": [
          {
            "use": "usual",
            "family": "HematocritPass",
            "given": [
              "PerformedInObs23Hrs15MinsPriorToAdmit"
            ]
          }
        ],
        "gender": "male",
        "birthDate": "1960-07-01"
      },
      "request": {
        "method": "PUT",
        "url": "Patient/0e890bae-051e-49a0-904e-eefe578ba696"
      }
    },
    {
      "fullUrl": "https://madie.cms.gov/Encounter/cde4a6be-d091-4457-b5cd-3b634d3093b3",
      "resource": {
        "resourceType": "Encounter",
        "id": "cde4a6be-d091-4457-b5cd-3b634d3093b3",
        "meta": {
          "profile": [
            "http://hl7.org/fhir/us/qicore/StructureDefinition/qicore-encounter"
          ]
        },
        "status": "finished",
        "class": {
          "system": "http://terminology.hl7.org/CodeSystem/v3-ActCode",
          "code": "OBSENC",
          "display": "observation encounter",
          "userSelected": true
        },
        "type": [
          {
            "coding": [
              {
                "system": "http://snomed.info/sct",
                "code": "448951000124107",
                "display": "Admission to observation unit (procedure)"
              }
            ]
          }
        ],
        "subject": {
          "reference": "Patient/0e890bae-051e-49a0-904e-eefe578ba696"
        },
        "period": {
          "start": "2025-07-01T08:00:00.000+00:00",
          "end": "2025-07-02T07:15:00.000+00:00"
        },
        "length": {
          "value": 1,
          "unit": "days"
        }
      },
      "request": {
        "method": "PUT",
        "url": "Encounter/cde4a6be-d091-4457-b5cd-3b634d3093b3"
      }
    },
    {
      "fullUrl": "https://madie.cms.gov/Encounter/15205cdd-01ff-4fcd-9199-9f5d7d8d513a",
      "resource": {
        "resourceType": "Encounter",
        "id": "15205cdd-01ff-4fcd-9199-9f5d7d8d513a",
        "meta": {
          "profile": [
            "http://hl7.org/fhir/us/qicore/StructureDefinition/qicore-encounter"
          ]
        },
        "status": "finished",
        "class": {
          "system": "http://terminology.hl7.org/CodeSystem/v3-ActCode",
          "code": "IMP",
          "display": "inpatient encounter",
          "userSelected": true
        },
        "type": [
          {
            "coding": [
              {
                "system": "http://snomed.info/sct",
                "code": "183452005"
              }
            ]
          }
        ],
        "subject": {
          "reference": "Patient/0e890bae-051e-49a0-904e-eefe578ba696"
        },
        "period": {
          "start": "2025-07-02T07:15:00.000+00:00",
          "end": "2025-07-05T12:15:00.000+00:00"
        },
        "length": {
          "value": 3,
          "unit": "days"
        }
      },
      "request": {
        "method": "PUT",
        "url": "Encounter/15205cdd-01ff-4fcd-9199-9f5d7d8d513a"
      }
    },
    {
      "fullUrl": "https://madie.cms.gov/Coverage/f3f7eb60-0123-4b54-8c06-de3e28868163",
      "resource": {
        "resourceType": "Coverage",
        "id": "f3f7eb60-0123-4b54-8c06-de3e28868163",
        "meta": {
          "profile": [
            "http://hl7.org/fhir/us/qicore/StructureDefinition/qicore-coverage"
          ]
        },
        "status": "active",
        "type": {
          "coding": [
            {
              "system": "https://nahdo.org/sopt",
              "version": "1.0.1",
              "code": "1",
              "display": "Medicare payer",
              "userSelected": true
            }
          ]
        },
        "beneficiary": {
          "reference": "Patient/0e890bae-051e-49a0-904e-eefe578ba696"
        },
        "payor": [
          {
            "reference": "Organization/6b63ea61-d47a-4de1-b166-8870f56dd53b"
          }
        ]
      },
      "request": {
        "method": "PUT",
        "url": "Coverage/f3f7eb60-0123-4b54-8c06-de3e28868163"
      }
    },
    {
      "fullUrl": "https://madie.cms.gov/Observation/11ac40a3-8ae5-45cc-a9e9-8ddc8225eb52",
      "resource": {
        "resourceType": "Observation",
        "id": "11ac40a3-8ae5-45cc-a9e9-8ddc8225eb52",
        "meta": {
          "profile": [
            "http://hl7.org/fhir/us/core/StructureDefinition/us-core-observation-lab"
          ]
        },
        "status": "final",
        "category": [
          {
            "coding": [
              {
                "system": "http://terminology.hl7.org/CodeSystem/observation-category",
                "code": "laboratory",
                "display": "Laboratory",
                "userSelected": true
              }
            ]
          }
        ],
        "code": {
          "coding": [
            {
              "system": "http://loinc.org",
              "code": "20570-8",
              "display": "Hematocrit [Volume Fraction] of Blood"
            }
          ]
        },
        "subject": {
          "reference": "Patient/0e890bae-051e-49a0-904e-eefe578ba696"
        },
        "effectiveDateTime": "2025-07-01T08:00:00.000+00:00",
        "issued": "2025-07-01T08:00:00.000+00:00",
        "valueQuantity": {
          "value": 50,
          "unit": "%",
          "system": "http://unitsofmeasure.org",
          "code": "%"
        }
      },
      "request": {
        "method": "PUT",
        "url": "Observation/11ac40a3-8ae5-45cc-a9e9-8ddc8225eb52"
      }
    },
    {
      "fullUrl": "https://madie.cms.gov/Organization/6b63ea61-d47a-4de1-b166-8870f56dd53b",
      "resource": {
        "resourceType": "Organization",
        "id": "6b63ea61-d47a-4de1-b166-8870f56dd53b",
        "meta": {
          "profile": [
            "http://hl7.org/fhir/us/qicore/StructureDefinition/qicore-organization"
          ]
        },
        "identifier": [
          {
            "use": "temp",
            "system": "urn:oid:2.16.840.1.113883.4.4",
            "value": "21-3259825"
          }
        ],
        "active": true,
        "type": [
          {
            "coding": [
              {
                "system": "http://terminology.hl7.org/CodeSystem/organization-type",
                "code": "pay",
                "display": "Payer"
              }
            ]
          }
        ],
        "name": "Blue Cross Blue Shield of Texas",
        "telecom": [
          {
            "system": "phone",
            "value": "(+1) 972-766-6900"
          }
        ],
        "address": [
          {
            "use": "billing",
            "type": "postal",
            "line": [
              "P.O. Box 660044"
            ],
            "city": "Dallas",
            "state": "TX",
            "postalCode": "75266-0044",
            "country": "USA"
          }
        ]
      },
      "request": {
        "method": "PUT",
        "url": "Organization/6b63ea61-d47a-4de1-b166-8870f56dd53b"
      }
    },
    {
      "fullUrl": "https://madie.cms.gov/Practitioner/3f32a25c-5a19-4400-b040-4f723fcc365f",
      "resource": {
        "resourceType": "Practitioner",
        "id": "3f32a25c-5a19-4400-b040-4f723fcc365f",
        "meta": {
          "profile": [
            "http://hl7.org/fhir/us/qicore/StructureDefinition/qicore-practitioner"
          ]
        },
        "identifier": [
          {
            "system": "http://hl7.org/fhir/sid/us-npi",
            "value": "123456"
          }
        ],
        "name": [
          {
            "family": "Evil",
            "prefix": [
              "Dr"
            ]
          }
        ]
      },
      "request": {
        "method": "PUT",
        "url": "Practitioner/3f32a25c-5a19-4400-b040-4f723fcc365f"
      }
    },
    {
      "fullUrl": "https://madie.cms.gov/MeasureReport/d0f3e077-90cd-4b0a-a972-80284cfca67d",
      "resource": {
        "resourceType": "MeasureReport",
        "id": "d0f3e077-90cd-4b0a-a972-80284cfca67d",
        "meta": {
          "profile": [
            "http://hl7.org/fhir/us/cqfmeasures/StructureDefinition/test-case-cqfm"
          ]
        },
        "contained": [
          {
            "resourceType": "Parameters",
            "id": "7ea81657-07ce-4081-bc0e-2065e0cc71e6-parameters",
            "parameter": [
              {
                "name": "subject",
                "valueString": "0e890bae-051e-49a0-904e-eefe578ba696"
              }
            ]
          }
        ],
        "extension": [
          {
            "url": "http://hl7.org/fhir/us/cqfmeasures/StructureDefinition/cqfm-inputParameters",
            "valueReference": {
              "reference": "#7ea81657-07ce-4081-bc0e-2065e0cc71e6-parameters"
            }
          },
          {
            "url": "http://hl7.org/fhir/us/cqfmeasures/StructureDefinition/cqfm-testCaseDescription",
            "valueMarkdown": "Observation enc first day of MP (7/1), Inpt enc. 7/2, has Medicare, hematocrit evaluated in Obser 23 hrs 15 mins prior to inpatient admission"
          }
        ],
        "modifierExtension": [
          {
            "url": "http://hl7.org/fhir/us/cqfmeasures/StructureDefinition/cqfm-isTestCase",
            "valueBoolean": true
          }
        ],
        "status": "complete",
        "type": "individual",
        "measure": "https://madie.cms.gov/Measure/HybridHospitalWideMortalityFHIR",
        "period": {
          "start": "2025-07-01",
          "end": "2026-06-30"
        },
        "group": [
          {
            "population": [
              {
                "code": {
                  "coding": [
                    {
                      "system": "http://terminology.hl7.org/CodeSystem/measure-population",
                      "code": "initial-population",
                      "display": "Initial Population"
                    }
                  ]
                },
                "count": 1
              }
            ]
          }
        ],
        "evaluatedResource": [
          {
            "reference": "Patient/0e890bae-051e-49a0-904e-eefe578ba696"
          },
          {
            "reference": "Encounter/cde4a6be-d091-4457-b5cd-3b634d3093b3"
          },
          {
            "reference": "Encounter/15205cdd-01ff-4fcd-9199-9f5d7d8d513a"
          },
          {
            "reference": "Coverage/f3f7eb60-0123-4b54-8c06-de3e28868163"
          },
          {
            "reference": "Observation/11ac40a3-8ae5-45cc-a9e9-8ddc8225eb52"
          },
          {
            "reference": "Organization/6b63ea61-d47a-4de1-b166-8870f56dd53b"
          },
          {
            "reference": "Practitioner/3f32a25c-5a19-4400-b040-4f723fcc365f"
          }
        ]
      },
      "request": {
        "method": "PUT",
        "url": "MeasureReport/d0f3e077-90cd-4b0a-a972-80284cfca67d"
      }
    }
  ]
}