{
  "resourceType": "Bundle",
  "id": "635300f1224f3b0539671247",
  "type": "transaction",
  "entry": [
    {
      "fullUrl": "https://madie.cms.gov/Patient/ae594dab-a6ff-462e-ae52-d1cef2906556",
      "resource": {
        "resourceType": "Patient",
        "id": "ae594dab-a6ff-462e-ae52-d1cef2906556",
        "meta": {
          "profile": [
            "http://hl7.org/fhir/us/qicore/StructureDefinition/qicore-patient"
          ]
        },
        "extension": [
          {
            "url": "http://hl7.org/fhir/us/core/StructureDefinition/us-core-race",
            "extension": [
              {
                "url": "ombCategory",
                "valueCoding": {
                  "system": "urn:oid:2.16.840.1.113883.6.238",
                  "code": "1002-5",
                  "display": "American Indian or Alaska Native",
                  "userSelected": true
                }
              },
              {
                "url": "text",
                "valueString": "American Indian or Alaska Native"
              }
            ]
          },
          {
            "url": "http://hl7.org/fhir/us/core/StructureDefinition/us-core-ethnicity",
            "extension": [
              {
                "url": "ombCategory",
                "valueCoding": {
                  "system": "urn:oid:2.16.840.1.113883.6.238",
                  "code": "2135-2",
                  "display": "Hispanic or Latino",
                  "userSelected": true
                }
              },
              {
                "url": "text",
                "valueString": "Hispanic or Latino"
              }
            ]
          }
        ],
        "identifier": [
          {
            "type": {
              "coding": [
                {
                  "system": "http://terminology.hl7.org/CodeSystem/v2-0203",
                  "code": "MR"
                }
              ]
            },
            "system": "https://bonnie-fhir.healthit.gov/",
            "value": "635300f1224f3b0539671247"
          }
        ],
        "name": [
          {
            "family": "DENOMPass",
            "given": [
              "EDD23Hrs59MinB4TimeOfDel  (1)"
            ]
          }
        ],
        "gender": "female",
        "birthDate": "2004-02-01"
      },
      "request": {
        "method": "PUT",
        "url": "Patient/ae594dab-a6ff-462e-ae52-d1cef2906556"
      }
    },
    {
      "fullUrl": "https://madie.cms.gov/Encounter/6b48f54f-f12d-46bc-a84d-7fe6d2d8df02",
      "resource": {
        "resourceType": "Encounter",
        "id": "6b48f54f-f12d-46bc-a84d-7fe6d2d8df02",
        "meta": {
          "profile": [
            "http://hl7.org/fhir/us/qicore/StructureDefinition/qicore-encounter"
          ]
        },
        "status": "finished",
        "class": {
          "system": "http://terminology.hl7.org/CodeSystem/v3-ActCode",
          "code": "IMP",
          "display": "inpatient encounter"
        },
        "type": [
          {
            "coding": [
              {
                "system": "http://snomed.info/sct",
                "version": "2022-09",
                "code": "183452005",
                "display": "Emergency hospital admission (procedure)",
                "userSelected": true
              }
            ]
          }
        ],
        "subject": {
          "reference": "Patient/ae594dab-a6ff-462e-ae52-d1cef2906556"
        },
        "period": {
          "start": "2024-02-01T08:00:00.000+00:00",
          "end": "2024-02-05T08:15:00.000+00:00"
        }
      },
      "request": {
        "method": "PUT",
        "url": "Encounter/6b48f54f-f12d-46bc-a84d-7fe6d2d8df02"
      }
    },
    {
      "fullUrl": "https://madie.cms.gov/Procedure/b0af0d9f-b94c-45a7-a7bc-f5f85ef6bec7",
      "resource": {
        "resourceType": "Procedure",
        "id": "b0af0d9f-b94c-45a7-a7bc-f5f85ef6bec7",
        "meta": {
          "profile": [
            "http://hl7.org/fhir/us/qicore/StructureDefinition/qicore-procedure"
          ]
        },
        "extension": [
          {
            "url": "http://hl7.org/fhir/us/qicore/StructureDefinition/qicore-recorded",
            "valueDateTime": "2013-04-05T09:35:00-04:00"
          }
        ],
        "status": "completed",
        "code": {
          "coding": [
            {
              "system": "http://snomed.info/sct",
              "version": "2022-09",
              "code": "10745001",
              "display": "Delivery of transverse presentation (procedure)",
              "userSelected": true
            }
          ]
        },
        "subject": {
          "reference": "Patient/ae594dab-a6ff-462e-ae52-d1cef2906556"
        },
        "performedPeriod": {
          "start": "2024-02-01T08:00:00.000+00:00",
          "end": "2024-02-05T08:15:00.000+00:00"
        }
      },
      "request": {
        "method": "PUT",
        "url": "Procedure/b0af0d9f-b94c-45a7-a7bc-f5f85ef6bec7"
      }
    },
    {
      "fullUrl": "https://madie.cms.gov/Observation/37dfc17a-e375-48ab-a7a3-0da5e7d69203",
      "resource": {
        "resourceType": "Observation",
        "id": "37dfc17a-e375-48ab-a7a3-0da5e7d69203",
        "meta": {
          "profile": [
            "http://hl7.org/fhir/us/qicore/StructureDefinition/qicore-observation"
          ]
        },
        "status": "final",
        "category": [
          {
            "coding": [
              {
                "system": "http://terminology.hl7.org/CodeSystem/observation-category",
                "code": "exam",
                "display": "exam",
                "userSelected": true
              }
            ]
          }
        ],
        "code": {
          "coding": [
            {
              "system": "http://loinc.org",
              "code": "93857-1",
              "display": "Date and time of obstetric delivery",
              "userSelected": true
            }
          ]
        },
        "subject": {
          "reference": "Patient/ae594dab-a6ff-462e-ae52-d1cef2906556"
        },
        "effectiveDateTime": "2024-02-01T08:00:00.000+00:00",
        "valueDateTime": "2024-02-01T08:00:00.000+00:00"
      },
      "request": {
        "method": "PUT",
        "url": "Observation/37dfc17a-e375-48ab-a7a3-0da5e7d69203"
      }
    },
    {
      "fullUrl": "https://madie.cms.gov/Observation/ada07208-3e89-488b-b9e0-686c43fccc93",
      "resource": {
        "resourceType": "Observation",
        "id": "ada07208-3e89-488b-b9e0-686c43fccc93",
        "meta": {
          "profile": [
            "http://hl7.org/fhir/us/qicore/StructureDefinition/qicore-observation"
          ]
        },
        "status": "final",
        "category": [
          {
            "coding": [
              {
                "system": "http://terminology.hl7.org/CodeSystem/observation-category",
                "code": "exam",
                "display": "exam",
                "userSelected": true
              }
            ]
          }
        ],
        "code": {
          "coding": [
            {
              "system": "http://loinc.org",
              "code": "11778-8",
              "display": "Delivery date Estimated",
              "userSelected": true
            }
          ]
        },
        "subject": {
          "reference": "Patient/ae594dab-a6ff-462e-ae52-d1cef2906556"
        },
        "effectiveDateTime": "2024-01-31T08:00:00.000+00:00",
        "valueDateTime": "2024-01-31T08:00:00.000+00:00"
      },
      "request": {
        "method": "PUT",
        "url": "Observation/ada07208-3e89-488b-b9e0-686c43fccc93"
      }
    },
    {
      "fullUrl": "https://madie.cms.gov/Coverage/e5933ae7-850e-45eb-a382-29809e8ab1c2",
      "resource": {
        "resourceType": "Coverage",
        "id": "e5933ae7-850e-45eb-a382-29809e8ab1c2",
        "meta": {
          "profile": [
            "http://hl7.org/fhir/us/qicore/StructureDefinition/qicore-coverage"
          ]
        },
        "status": "active",
        "beneficiary": {
          "reference": "Patient/ae594dab-a6ff-462e-ae52-d1cef2906556"
        },
        "payor": [
          {
            "reference": "Organization/b196633a-f110-4717-8755-2028bd26532a"
          }
        ]
      },
      "request": {
        "method": "PUT",
        "url": "Coverage/e5933ae7-850e-45eb-a382-29809e8ab1c2"
      }
    },
    {
      "fullUrl": "https://madie.cms.gov/Organization/b196633a-f110-4717-8755-2028bd26532a",
      "resource": {
        "resourceType": "Organization",
        "id": "b196633a-f110-4717-8755-2028bd26532a",
        "meta": {
          "profile": [
            "http://hl7.org/fhir/us/qicore/StructureDefinition/qicore-organization"
          ]
        },
        "identifier": [
          {
            "use": "temp",
            "system": "urn:oid:2.16.840.1.113883.4.4",
            "value": "21-3259825"
          }
        ],
        "active": true,
        "type": [
          {
            "coding": [
              {
                "system": "http://terminology.hl7.org/CodeSystem/organization-type",
                "code": "pay",
                "display": "Payer"
              }
            ]
          }
        ],
        "name": "Blue Cross Blue Shield of Texas",
        "telecom": [
          {
            "system": "phone",
            "value": "(+1) 972-766-6900"
          }
        ],
        "address": [
          {
            "use": "billing",
            "type": "postal",
            "line": [
              "P.O. Box 660044"
            ],
            "city": "Dallas",
            "state": "TX",
            "postalCode": "75266-0044",
            "country": "USA"
          }
        ]
      },
      "request": {
        "method": "PUT",
        "url": "Organization/b196633a-f110-4717-8755-2028bd26532a"
      }
    },
    {
      "fullUrl": "https://madie.cms.gov/Practitioner/aa236e02-4f60-4491-98be-65ba6c2b5551",
      "resource": {
        "resourceType": "Practitioner",
        "id": "aa236e02-4f60-4491-98be-65ba6c2b5551",
        "identifier": [
          {
            "system": "http://hl7.org/fhir/sid/us-npi",
            "value": "123456"
          }
        ],
        "name": [
          {
            "family": "Evil",
            "prefix": [
              "Dr"
            ]
          }
        ]
      },
      "request": {
        "method": "PUT",
        "url": "Practitioner/aa236e02-4f60-4491-98be-65ba6c2b5551"
      }
    },
    {
      "fullUrl": "https://madie.cms.gov/MeasureReport/e776c503-aca6-41c8-bcb8-e4b75cbc7c9b",
      "resource": {
        "resourceType": "MeasureReport",
        "id": "e776c503-aca6-41c8-bcb8-e4b75cbc7c9b",
        "meta": {
          "profile": [
            "http://hl7.org/fhir/us/cqfmeasures/StructureDefinition/test-case-cqfm"
          ]
        },
        "contained": [
          {
            "resourceType": "Parameters",
            "id": "b0591532-57b0-4cb5-a3ec-e47f4b15693c-parameters",
            "parameter": [
              {
                "name": "subject",
                "valueString": "ae594dab-a6ff-462e-ae52-d1cef2906556"
              }
            ]
          }
        ],
        "extension": [
          {
            "url": "http://hl7.org/fhir/us/cqfmeasures/StructureDefinition/cqfm-inputParameters",
            "valueReference": {
              "reference": "#b0591532-57b0-4cb5-a3ec-e47f4b15693c-parameters"
            }
          },
          {
            "url": "http://hl7.org/fhir/us/cqfmeasures/StructureDefinition/cqfm-testCaseDescription",
            "valueMarkdown": "Last assessment Performed, Estimated Delivery Date, Relevant time, 23 hours 59 minutes before Delivery Result Date/Time.  EDD has date/time\n"
          }
        ],
        "modifierExtension": [
          {
            "url": "http://hl7.org/fhir/us/cqfmeasures/StructureDefinition/cqfm-isTestCase",
            "valueBoolean": true
          }
        ],
        "status": "complete",
        "type": "individual",
        "measure": "https://madie.cms.gov/Measure/SevereObstetricComplicationsFHIR",
        "period": {
          "start": "2024-01-01",
          "end": "2024-12-31"
        },
        "group": [
          {
            "population": [
              {
                "code": {
                  "coding": [
                    {
                      "system": "http://terminology.hl7.org/CodeSystem/measure-population",
                      "code": "initial-population",
                      "display": "Initial Population"
                    }
                  ]
                },
                "count": 1
              },
              {
                "code": {
                  "coding": [
                    {
                      "system": "http://terminology.hl7.org/CodeSystem/measure-population",
                      "code": "denominator",
                      "display": "Denominator"
                    }
                  ]
                },
                "count": 1
              },
              {
                "code": {
                  "coding": [
                    {
                      "system": "http://terminology.hl7.org/CodeSystem/measure-population",
                      "code": "denominator-exclusion",
                      "display": "Denominator Exclusion"
                    }
                  ]
                },
                "count": 0
              },
              {
                "code": {
                  "coding": [
                    {
                      "system": "http://terminology.hl7.org/CodeSystem/measure-population",
                      "code": "numerator",
                      "display": "Numerator"
                    }
                  ]
                },
                "count": 0
              }
            ]
          }
        ],
        "evaluatedResource": [
          {
            "reference": "Patient/ae594dab-a6ff-462e-ae52-d1cef2906556"
          },
          {
            "reference": "Encounter/6b48f54f-f12d-46bc-a84d-7fe6d2d8df02"
          },
          {
            "reference": "Procedure/b0af0d9f-b94c-45a7-a7bc-f5f85ef6bec7"
          },
          {
            "reference": "Observation/37dfc17a-e375-48ab-a7a3-0da5e7d69203"
          },
          {
            "reference": "Observation/ada07208-3e89-488b-b9e0-686c43fccc93"
          },
          {
            "reference": "Coverage/e5933ae7-850e-45eb-a382-29809e8ab1c2"
          },
          {
            "reference": "Organization/b196633a-f110-4717-8755-2028bd26532a"
          },
          {
            "reference": "Practitioner/aa236e02-4f60-4491-98be-65ba6c2b5551"
          }
        ]
      },
      "request": {
        "method": "PUT",
        "url": "MeasureReport/e776c503-aca6-41c8-bcb8-e4b75cbc7c9b"
      }
    }
  ]
}