{
  "resourceType": "Bundle",
  "id": "63ec0968ccb3770120fe9e26",
  "type": "transaction",
  "entry": [
    {
      "fullUrl": "https://madie.cms.gov/Patient/9ecec0b1-3b98-4d59-9613-3837ec3f9f46",
      "resource": {
        "resourceType": "Patient",
        "id": "9ecec0b1-3b98-4d59-9613-3837ec3f9f46",
        "meta": {
          "profile": [
            "http://hl7.org/fhir/us/qicore/StructureDefinition/qicore-patient"
          ]
        },
        "text": {
          "status": "generated",
          "div": "<div xmlns=\"http://www.w3.org/1999/xhtml\"><div class=\"hapiHeaderText\">LT24beforeAndGT2after_relevantDT <b>SBPPASS </b></div><table class=\"hapiPropertyTable\"><tbody><tr><td>Identifier</td><td>ff71e6df6fc1b78e69460d357884fa81714d2acf91ffda248ad3470e982fcab8</td></tr><tr><td>Date of birth</td><td><span>15 June 1956</span></td></tr></tbody></table></div>"
        },
        "extension": [
          {
            "url": "http://hl7.org/fhir/us/core/StructureDefinition/us-core-race",
            "extension": [
              {
                "url": "ombCategory",
                "valueCoding": {
                  "system": "urn:oid:2.16.840.1.113883.6.238",
                  "code": "1002-5",
                  "display": "American Indian or Alaska Native",
                  "userSelected": true
                }
              },
              {
                "url": "text",
                "valueString": "American Indian or Alaska Native"
              }
            ]
          },
          {
            "url": "http://hl7.org/fhir/us/core/StructureDefinition/us-core-ethnicity",
            "extension": [
              {
                "url": "ombCategory",
                "valueCoding": {
                  "system": "urn:oid:2.16.840.1.113883.6.238",
                  "code": "2186-5",
                  "display": "Not Hispanic or Latino",
                  "userSelected": true
                }
              },
              {
                "url": "text",
                "valueString": "Not Hispanic or Latino"
              }
            ]
          }
        ],
        "identifier": [
          {
            "type": {
              "coding": [
                {
                  "system": "http://terminology.hl7.org/CodeSystem/v2-0203",
                  "code": "MR"
                }
              ]
            },
            "system": "https://bonnie-fhir.healthit.gov/",
            "value": "63ec0968ccb3770120fe9e26"
          }
        ],
        "active": true,
        "name": [
          {
            "use": "usual",
            "family": "SystolicBPPass",
            "given": [
              "InED15AndHalfHrsBeforeInpatientAdmit"
            ]
          }
        ],
        "gender": "male",
        "birthDate": "1956-06-15"
      },
      "request": {
        "method": "PUT",
        "url": "Patient/9ecec0b1-3b98-4d59-9613-3837ec3f9f46"
      }
    },
    {
      "fullUrl": "https://madie.cms.gov/Encounter/a9d8adef-928e-4ce8-918a-8917b2d17465",
      "resource": {
        "resourceType": "Encounter",
        "id": "a9d8adef-928e-4ce8-918a-8917b2d17465",
        "meta": {
          "profile": [
            "http://hl7.org/fhir/us/qicore/StructureDefinition/qicore-encounter"
          ]
        },
        "status": "finished",
        "class": {
          "system": "http://terminology.hl7.org/CodeSystem/v3-ActCode",
          "code": "EMER",
          "display": "emergency",
          "userSelected": true
        },
        "type": [
          {
            "coding": [
              {
                "system": "http://snomed.info/sct",
                "code": "4525004",
                "display": "Emergency department patient visit (procedure)"
              }
            ]
          }
        ],
        "subject": {
          "reference": "Patient/9ecec0b1-3b98-4d59-9613-3837ec3f9f46"
        },
        "period": {
          "start": "2025-07-01T00:01:00.000+00:00",
          "end": "2025-07-01T15:00:00.000+00:00"
        },
        "length": {
          "value": 1,
          "unit": "days"
        }
      },
      "request": {
        "method": "PUT",
        "url": "Encounter/a9d8adef-928e-4ce8-918a-8917b2d17465"
      }
    },
    {
      "fullUrl": "https://madie.cms.gov/Encounter/d48f3a79-962b-4728-a38a-6fae524a8cd6",
      "resource": {
        "resourceType": "Encounter",
        "id": "d48f3a79-962b-4728-a38a-6fae524a8cd6",
        "meta": {
          "profile": [
            "http://hl7.org/fhir/us/qicore/StructureDefinition/qicore-encounter"
          ]
        },
        "status": "finished",
        "class": {
          "system": "http://terminology.hl7.org/CodeSystem/v3-ActCode",
          "code": "IMP",
          "display": "inpatient encounter",
          "userSelected": true
        },
        "type": [
          {
            "coding": [
              {
                "system": "http://snomed.info/sct",
                "code": "183452005"
              }
            ]
          }
        ],
        "subject": {
          "reference": "Patient/9ecec0b1-3b98-4d59-9613-3837ec3f9f46"
        },
        "period": {
          "start": "2025-07-01T15:00:00.000+00:00",
          "end": "2025-07-05T08:15:00.000+00:00"
        },
        "length": {
          "value": 1,
          "unit": "days"
        }
      },
      "request": {
        "method": "PUT",
        "url": "Encounter/d48f3a79-962b-4728-a38a-6fae524a8cd6"
      }
    },
    {
      "fullUrl": "https://madie.cms.gov/Coverage/4b484997-787a-4d04-8dc6-5c26cc62c220",
      "resource": {
        "resourceType": "Coverage",
        "id": "4b484997-787a-4d04-8dc6-5c26cc62c220",
        "meta": {
          "profile": [
            "http://hl7.org/fhir/us/qicore/StructureDefinition/qicore-coverage"
          ]
        },
        "status": "active",
        "type": {
          "coding": [
            {
              "system": "https://nahdo.org/sopt",
              "version": "1.0.1",
              "code": "1",
              "display": "Medicare payer",
              "userSelected": true
            }
          ]
        },
        "beneficiary": {
          "reference": "Patient/9ecec0b1-3b98-4d59-9613-3837ec3f9f46"
        },
        "payor": [
          {
            "reference": "Organization/cac6133c-9a7a-4221-9422-fdd3ef3e508c"
          }
        ]
      },
      "request": {
        "method": "PUT",
        "url": "Coverage/4b484997-787a-4d04-8dc6-5c26cc62c220"
      }
    },
    {
      "fullUrl": "https://madie.cms.gov/Observation/4b67c3bc-52e1-463e-8bb3-d38f1636e035",
      "resource": {
        "resourceType": "Observation",
        "id": "4b67c3bc-52e1-463e-8bb3-d38f1636e035",
        "meta": {
          "profile": [
            "http://hl7.org/fhir/StructureDefinition/bp"
          ]
        },
        "status": "final",
        "category": [
          {
            "coding": [
              {
                "system": "http://terminology.hl7.org/CodeSystem/observation-category",
                "code": "vital-signs",
                "display": "Vital Signs"
              }
            ],
            "text": "Vital Signs"
          }
        ],
        "code": {
          "coding": [
            {
              "system": "http://loinc.org",
              "code": "85354-9",
              "display": "Blood pressure panel"
            }
          ]
        },
        "subject": {
          "reference": "Patient/9ecec0b1-3b98-4d59-9613-3837ec3f9f46"
        },
        "effectiveDateTime": "2025-07-01T00:30:00.000Z",
        "component": [
          {
            "code": {
              "coding": [
                {
                  "system": "http://loinc.org",
                  "code": "8480-6",
                  "display": "Systolic blood pressure"
                }
              ]
            },
            "valueQuantity": {
              "value": 131,
              "unit": "mmHg",
              "system": "http://unitsofmeasure.org",
              "code": "mm[Hg]"
            }
          },
          {
            "code": {
              "coding": [
                {
                  "system": "http://loinc.org",
                  "code": "8462-4",
                  "display": "Diastolic blood pressure"
                }
              ]
            },
            "valueQuantity": {
              "value": 80,
              "unit": "mmHg",
              "system": "http://unitsofmeasure.org",
              "code": "mm[Hg]"
            }
          }
        ]
      },
      "request": {
        "method": "PUT",
        "url": "Observation/4b67c3bc-52e1-463e-8bb3-d38f1636e035"
      }
    },
    {
      "fullUrl": "https://madie.cms.gov/Observation/2c31774d-d173-4383-b0f9-bb429fac22cd",
      "resource": {
        "resourceType": "Observation",
        "id": "2c31774d-d173-4383-b0f9-bb429fac22cd",
        "meta": {
          "profile": [
            "http://hl7.org/fhir/us/qicore/StructureDefinition/qicore-observation"
          ]
        },
        "status": "amended",
        "category": [
          {
            "coding": [
              {
                "system": "http://terminology.hl7.org/CodeSystem/observation-category",
                "code": "laboratory",
                "display": "laboratory",
                "userSelected": true
              }
            ]
          }
        ],
        "code": {
          "coding": [
            {
              "system": "http://loinc.org",
              "code": "8480-6"
            }
          ]
        },
        "subject": {
          "reference": "Patient/9ecec0b1-3b98-4d59-9613-3837ec3f9f46"
        },
        "effectiveDateTime": "2025-07-01T15:00:00.000Z",
        "valueQuantity": {
          "value": 115,
          "unit": "mm[Hg]",
          "system": "http://unitsofmeasure.org",
          "code": "mm[Hg]"
        }
      },
      "request": {
        "method": "PUT",
        "url": "Observation/2c31774d-d173-4383-b0f9-bb429fac22cd"
      }
    },
    {
      "fullUrl": "https://madie.cms.gov/Organization/cac6133c-9a7a-4221-9422-fdd3ef3e508c",
      "resource": {
        "resourceType": "Organization",
        "id": "cac6133c-9a7a-4221-9422-fdd3ef3e508c",
        "meta": {
          "profile": [
            "http://hl7.org/fhir/us/qicore/StructureDefinition/qicore-organization"
          ]
        },
        "identifier": [
          {
            "use": "temp",
            "system": "urn:oid:2.16.840.1.113883.4.4",
            "value": "21-3259825"
          }
        ],
        "active": true,
        "type": [
          {
            "coding": [
              {
                "system": "http://terminology.hl7.org/CodeSystem/organization-type",
                "code": "pay",
                "display": "Payer"
              }
            ]
          }
        ],
        "name": "Blue Cross Blue Shield of Texas",
        "telecom": [
          {
            "system": "phone",
            "value": "(+1) 972-766-6900"
          }
        ],
        "address": [
          {
            "use": "billing",
            "type": "postal",
            "line": [
              "P.O. Box 660044"
            ],
            "city": "Dallas",
            "state": "TX",
            "postalCode": "75266-0044",
            "country": "USA"
          }
        ]
      },
      "request": {
        "method": "PUT",
        "url": "Organization/cac6133c-9a7a-4221-9422-fdd3ef3e508c"
      }
    },
    {
      "fullUrl": "https://madie.cms.gov/Practitioner/2991cc00-ee77-4f8c-9edb-b925ffef7ea0",
      "resource": {
        "resourceType": "Practitioner",
        "id": "2991cc00-ee77-4f8c-9edb-b925ffef7ea0",
        "meta": {
          "profile": [
            "http://hl7.org/fhir/us/qicore/StructureDefinition/qicore-practitioner"
          ]
        },
        "identifier": [
          {
            "system": "http://hl7.org/fhir/sid/us-npi",
            "value": "123456"
          }
        ],
        "name": [
          {
            "family": "Evil",
            "prefix": [
              "Dr"
            ]
          }
        ]
      },
      "request": {
        "method": "PUT",
        "url": "Practitioner/2991cc00-ee77-4f8c-9edb-b925ffef7ea0"
      }
    },
    {
      "fullUrl": "https://madie.cms.gov/MeasureReport/9d678f21-4128-41af-9a85-52a8cafcdf41",
      "resource": {
        "resourceType": "MeasureReport",
        "id": "9d678f21-4128-41af-9a85-52a8cafcdf41",
        "meta": {
          "profile": [
            "http://hl7.org/fhir/us/cqfmeasures/StructureDefinition/test-case-cqfm"
          ]
        },
        "contained": [
          {
            "resourceType": "Parameters",
            "id": "fb440f8e-492f-4fb6-96d5-cb7e60cb9519-parameters",
            "parameter": [
              {
                "name": "subject",
                "valueString": "9ecec0b1-3b98-4d59-9613-3837ec3f9f46"
              }
            ]
          }
        ],
        "extension": [
          {
            "url": "http://hl7.org/fhir/us/cqfmeasures/StructureDefinition/cqfm-inputParameters",
            "valueReference": {
              "reference": "#fb440f8e-492f-4fb6-96d5-cb7e60cb9519-parameters"
            }
          },
          {
            "url": "http://hl7.org/fhir/us/cqfmeasures/StructureDefinition/cqfm-testCaseDescription",
            "valueMarkdown": "ED Enc first day of MP (7/1) has Medicare, BP evaluated in ED 30 mins after ED start, 15.5 hrs prior to inpatient admit and at inpatient admit 15:00, only the BP taken in ED counted"
          }
        ],
        "modifierExtension": [
          {
            "url": "http://hl7.org/fhir/us/cqfmeasures/StructureDefinition/cqfm-isTestCase",
            "valueBoolean": true
          }
        ],
        "status": "complete",
        "type": "individual",
        "measure": "https://madie.cms.gov/Measure/HybridHospitalWideMortalityFHIR",
        "period": {
          "start": "2025-07-01",
          "end": "2026-06-30"
        },
        "group": [
          {
            "population": [
              {
                "code": {
                  "coding": [
                    {
                      "system": "http://terminology.hl7.org/CodeSystem/measure-population",
                      "code": "initial-population",
                      "display": "Initial Population"
                    }
                  ]
                },
                "count": 1
              }
            ]
          }
        ],
        "evaluatedResource": [
          {
            "reference": "Patient/9ecec0b1-3b98-4d59-9613-3837ec3f9f46"
          },
          {
            "reference": "Encounter/a9d8adef-928e-4ce8-918a-8917b2d17465"
          },
          {
            "reference": "Encounter/d48f3a79-962b-4728-a38a-6fae524a8cd6"
          },
          {
            "reference": "Coverage/4b484997-787a-4d04-8dc6-5c26cc62c220"
          },
          {
            "reference": "Observation/4b67c3bc-52e1-463e-8bb3-d38f1636e035"
          },
          {
            "reference": "Observation/2c31774d-d173-4383-b0f9-bb429fac22cd"
          },
          {
            "reference": "Organization/cac6133c-9a7a-4221-9422-fdd3ef3e508c"
          },
          {
            "reference": "Practitioner/2991cc00-ee77-4f8c-9edb-b925ffef7ea0"
          }
        ]
      },
      "request": {
        "method": "PUT",
        "url": "MeasureReport/9d678f21-4128-41af-9a85-52a8cafcdf41"
      }
    }
  ]
}