{
  "resourceType": "Bundle",
  "id": "6356dca654e383debade75aa",
  "type": "transaction",
  "entry": [
    {
      "fullUrl": "https://madie.cms.gov/Patient/1673e28d-155a-4975-972b-bcc4b1699977",
      "resource": {
        "resourceType": "Patient",
        "id": "1673e28d-155a-4975-972b-bcc4b1699977",
        "meta": {
          "profile": [
            "http://hl7.org/fhir/us/qicore/StructureDefinition/qicore-patient"
          ]
        },
        "text": {
          "status": "generated",
          "div": "<div xmlns=\"http://www.w3.org/1999/xhtml\"><div class=\"hapiHeaderText\">2ENCMEETNUM <b>NUMPASS </b></div><table class=\"hapiPropertyTable\"><tbody><tr><td>Date of birth</td><td><span>01 February 2004</span></td></tr></tbody></table></div>"
        },
        "extension": [
          {
            "url": "http://hl7.org/fhir/us/core/StructureDefinition/us-core-race",
            "extension": [
              {
                "url": "ombCategory",
                "valueCoding": {
                  "system": "urn:oid:2.16.840.1.113883.6.238",
                  "code": "1002-5",
                  "display": "American Indian or Alaska Native",
                  "userSelected": true
                }
              },
              {
                "url": "text",
                "valueString": "American Indian or Alaska Native"
              }
            ]
          },
          {
            "url": "http://hl7.org/fhir/us/core/StructureDefinition/us-core-ethnicity",
            "extension": [
              {
                "url": "ombCategory",
                "valueCoding": {
                  "system": "urn:oid:2.16.840.1.113883.6.238",
                  "code": "2135-2",
                  "display": "Hispanic or Latino",
                  "userSelected": true
                }
              },
              {
                "url": "text",
                "valueString": "Hispanic or Latino"
              }
            ]
          }
        ],
        "identifier": [
          {
            "type": {
              "coding": [
                {
                  "system": "http://terminology.hl7.org/CodeSystem/v2-0203",
                  "code": "MR"
                }
              ]
            },
            "system": "https://bonnie-fhir.healthit.gov/",
            "value": "6356dca654e383debade75aa"
          }
        ],
        "active": true,
        "name": [
          {
            "use": "usual",
            "family": "NUMPass",
            "given": [
              "2ENCMEETNUM"
            ]
          }
        ],
        "gender": "female",
        "birthDate": "2004-02-01"
      },
      "request": {
        "method": "PUT",
        "url": "Patient/1673e28d-155a-4975-972b-bcc4b1699977"
      }
    },
    {
      "fullUrl": "https://madie.cms.gov/Observation/0d1566c7-320f-4788-9c11-140641e5cef7",
      "resource": {
        "resourceType": "Observation",
        "id": "0d1566c7-320f-4788-9c11-140641e5cef7",
        "meta": {
          "profile": [
            "http://hl7.org/fhir/us/qicore/StructureDefinition/qicore-observation"
          ]
        },
        "status": "final",
        "category": [
          {
            "coding": [
              {
                "system": "http://terminology.hl7.org/CodeSystem/observation-category",
                "code": "exam",
                "display": "exam",
                "userSelected": true
              }
            ]
          }
        ],
        "code": {
          "coding": [
            {
              "system": "http://loinc.org",
              "code": "93857-1"
            }
          ]
        },
        "subject": {
          "reference": "Patient/1673e28d-155a-4975-972b-bcc4b1699977"
        },
        "effectiveDateTime": "2024-02-01T08:00:00.000+00:00",
        "valueDateTime": "2024-02-01T08:00:00+00:00"
      },
      "request": {
        "method": "PUT",
        "url": "Observation/0d1566c7-320f-4788-9c11-140641e5cef7"
      }
    },
    {
      "fullUrl": "https://madie.cms.gov/Observation/b5ed873d-23e4-4a96-a4ea-7a4d79a7984b",
      "resource": {
        "resourceType": "Observation",
        "id": "b5ed873d-23e4-4a96-a4ea-7a4d79a7984b",
        "meta": {
          "profile": [
            "http://hl7.org/fhir/us/qicore/StructureDefinition/qicore-observation"
          ]
        },
        "status": "final",
        "category": [
          {
            "coding": [
              {
                "system": "http://terminology.hl7.org/CodeSystem/observation-category",
                "code": "exam",
                "display": "exam",
                "userSelected": true
              }
            ]
          }
        ],
        "code": {
          "coding": [
            {
              "system": "http://loinc.org",
              "code": "93857-1"
            }
          ]
        },
        "subject": {
          "reference": "Patient/1673e28d-155a-4975-972b-bcc4b1699977"
        },
        "effectiveDateTime": "2024-11-10T08:00:00.000+00:00",
        "valueDateTime": "2024-11-10T08:00:00+00:00"
      },
      "request": {
        "method": "PUT",
        "url": "Observation/b5ed873d-23e4-4a96-a4ea-7a4d79a7984b"
      }
    },
    {
      "fullUrl": "https://madie.cms.gov/Observation/51fc01b8-143f-4a61-8e83-794cde45c994",
      "resource": {
        "resourceType": "Observation",
        "id": "51fc01b8-143f-4a61-8e83-794cde45c994",
        "meta": {
          "profile": [
            "http://hl7.org/fhir/us/qicore/StructureDefinition/qicore-observation"
          ]
        },
        "status": "final",
        "category": [
          {
            "coding": [
              {
                "system": "http://terminology.hl7.org/CodeSystem/observation-category",
                "code": "exam",
                "display": "exam",
                "userSelected": true
              }
            ]
          }
        ],
        "code": {
          "coding": [
            {
              "system": "http://loinc.org",
              "code": "11884-4"
            }
          ]
        },
        "subject": {
          "reference": "Patient/1673e28d-155a-4975-972b-bcc4b1699977"
        },
        "effectiveDateTime": "2024-02-01T08:00:00.000+00:00",
        "valueQuantity": {
          "value": 21,
          "system": "http://unitsofmeasure.org",
          "code": "wk"
        }
      },
      "request": {
        "method": "PUT",
        "url": "Observation/51fc01b8-143f-4a61-8e83-794cde45c994"
      }
    },
    {
      "fullUrl": "https://madie.cms.gov/Observation/2a466ce1-751f-468f-88db-9051335e57e3",
      "resource": {
        "resourceType": "Observation",
        "id": "2a466ce1-751f-468f-88db-9051335e57e3",
        "meta": {
          "profile": [
            "http://hl7.org/fhir/us/qicore/StructureDefinition/qicore-observation"
          ]
        },
        "status": "final",
        "category": [
          {
            "coding": [
              {
                "system": "http://terminology.hl7.org/CodeSystem/observation-category",
                "code": "exam",
                "display": "exam",
                "userSelected": true
              }
            ]
          }
        ],
        "code": {
          "coding": [
            {
              "system": "http://loinc.org",
              "code": "11884-4"
            }
          ]
        },
        "subject": {
          "reference": "Patient/1673e28d-155a-4975-972b-bcc4b1699977"
        },
        "effectiveDateTime": "2024-11-10T08:00:00.000+00:00",
        "valueQuantity": {
          "value": 23,
          "system": "http://unitsofmeasure.org",
          "code": "wk"
        }
      },
      "request": {
        "method": "PUT",
        "url": "Observation/2a466ce1-751f-468f-88db-9051335e57e3"
      }
    },
    {
      "fullUrl": "https://madie.cms.gov/Encounter/a164a9cd-2d55-4f67-8747-ceb369cc2c37",
      "resource": {
        "resourceType": "Encounter",
        "id": "a164a9cd-2d55-4f67-8747-ceb369cc2c37",
        "meta": {
          "profile": [
            "http://hl7.org/fhir/us/qicore/StructureDefinition/qicore-encounter"
          ]
        },
        "status": "finished",
        "class": {
          "system": "http://terminology.hl7.org/CodeSystem/v3-ActCode",
          "code": "IMP",
          "display": "inpatient encounter"
        },
        "type": [
          {
            "coding": [
              {
                "system": "http://snomed.info/sct",
                "code": "183452005"
              }
            ]
          }
        ],
        "subject": {
          "reference": "Patient/1673e28d-155a-4975-972b-bcc4b1699977"
        },
        "period": {
          "start": "2024-02-01T08:00:00.000Z",
          "end": "2024-02-05T08:15:00.000Z"
        },
        "diagnosis": [
          {
            "extension": [
              {
                "url": "http://hl7.org/fhir/us/qicore/StructureDefinition/qicore-encounter-diagnosisPresentOnAdmission",
                "valueCodeableConcept": {
                  "coding": [
                    {
                      "system": "https://www.cms.gov/Medicare/Medicare-Fee-for-Service-Payment/HospitalAcqCond/Coding",
                      "code": "N"
                    }
                  ]
                }
              }
            ],
            "condition": {
              "reference": "Condition/cddf31a7-3416-40fd-9ea6-d399d0865a2a"
            }
          }
        ]
      },
      "request": {
        "method": "PUT",
        "url": "Encounter/a164a9cd-2d55-4f67-8747-ceb369cc2c37"
      }
    },
    {
      "fullUrl": "https://madie.cms.gov/Encounter/737075e6-5a5a-4446-8bd9-2af97eacff07",
      "resource": {
        "resourceType": "Encounter",
        "id": "737075e6-5a5a-4446-8bd9-2af97eacff07",
        "meta": {
          "profile": [
            "http://hl7.org/fhir/us/qicore/StructureDefinition/qicore-encounter"
          ]
        },
        "status": "finished",
        "class": {
          "system": "http://terminology.hl7.org/CodeSystem/v3-ActCode",
          "code": "IMP",
          "display": "inpatient encounter"
        },
        "type": [
          {
            "coding": [
              {
                "system": "http://snomed.info/sct",
                "code": "183452005"
              }
            ]
          }
        ],
        "subject": {
          "reference": "Patient/1673e28d-155a-4975-972b-bcc4b1699977"
        },
        "period": {
          "start": "2024-11-10T08:00:00.000Z",
          "end": "2024-11-15T08:15:00.000Z"
        },
        "diagnosis": [
          {
            "extension": [
              {
                "url": "http://hl7.org/fhir/us/qicore/StructureDefinition/qicore-encounter-diagnosisPresentOnAdmission",
                "valueCodeableConcept": {
                  "coding": [
                    {
                      "system": "https://www.cms.gov/Medicare/Medicare-Fee-for-Service-Payment/HospitalAcqCond/Coding",
                      "code": "N"
                    }
                  ]
                }
              }
            ],
            "condition": {
              "reference": "Condition/d6aeeace-ff9a-432b-b99b-6c8a9ae71ab3"
            }
          }
        ]
      },
      "request": {
        "method": "PUT",
        "url": "Encounter/737075e6-5a5a-4446-8bd9-2af97eacff07"
      }
    },
    {
      "fullUrl": "https://madie.cms.gov/Procedure/b7456761-6565-4099-ac3e-d1ff56c65b0d",
      "resource": {
        "resourceType": "Procedure",
        "id": "b7456761-6565-4099-ac3e-d1ff56c65b0d",
        "meta": {
          "profile": [
            "http://hl7.org/fhir/us/qicore/StructureDefinition/qicore-procedure"
          ]
        },
        "extension": [
          {
            "url": "http://hl7.org/fhir/us/qicore/StructureDefinition/qicore-recorded",
            "valueDateTime": "2013-04-05T09:35:00-04:00"
          }
        ],
        "status": "completed",
        "code": {
          "coding": [
            {
              "system": "http://snomed.info/sct",
              "code": "10745001"
            }
          ]
        },
        "subject": {
          "reference": "Patient/1673e28d-155a-4975-972b-bcc4b1699977"
        },
        "performedPeriod": {
          "start": "2024-02-01T08:00:00.000Z",
          "end": "2024-02-05T08:15:00.000Z"
        }
      },
      "request": {
        "method": "PUT",
        "url": "Procedure/b7456761-6565-4099-ac3e-d1ff56c65b0d"
      }
    },
    {
      "fullUrl": "https://madie.cms.gov/Procedure/b7456761-6565-4099-ac3e-d1ff56c65b0d2",
      "resource": {
        "resourceType": "Procedure",
        "id": "b7456761-6565-4099-ac3e-d1ff56c65b0d2",
        "meta": {
          "profile": [
            "http://hl7.org/fhir/us/qicore/StructureDefinition/qicore-procedure"
          ]
        },
        "extension": [
          {
            "url": "http://hl7.org/fhir/us/qicore/StructureDefinition/qicore-recorded",
            "valueDateTime": "2013-04-05T09:35:00-04:00"
          }
        ],
        "status": "completed",
        "code": {
          "coding": [
            {
              "system": "http://snomed.info/sct",
              "code": "10745001"
            }
          ]
        },
        "subject": {
          "reference": "Patient/1673e28d-155a-4975-972b-bcc4b1699977"
        },
        "performedPeriod": {
          "start": "2024-11-10T08:00:00.000Z",
          "end": "2024-11-10T08:15:00.000Z"
        }
      },
      "request": {
        "method": "PUT",
        "url": "Procedure/b7456761-6565-4099-ac3e-d1ff56c65b0d2"
      }
    },
    {
      "fullUrl": "https://madie.cms.gov/Condition/cddf31a7-3416-40fd-9ea6-d399d0865a2a",
      "resource": {
        "resourceType": "Condition",
        "id": "cddf31a7-3416-40fd-9ea6-d399d0865a2a",
        "meta": {
          "profile": [
            "http://hl7.org/fhir/us/qicore/StructureDefinition/qicore-condition"
          ]
        },
        "category": [
          {
            "coding": [
              {
                "system": "http://terminology.hl7.org/CodeSystem/condition-category",
                "code": "encounter-diagnosis",
                "display": "Encounter Diagnosis"
              }
            ]
          }
        ],
        "code": {
          "coding": [
            {
              "system": "http://hl7.org/fhir/sid/icd-10-cm",
              "version": "2023",
              "code": "A32.7",
              "display": "Listerial sepsis",
              "userSelected": true
            }
          ]
        },
        "subject": {
          "reference": "Patient/1673e28d-155a-4975-972b-bcc4b1699977"
        },
        "recordedDate": "2024-10-26T08:00:00.000+00:00"
      },
      "request": {
        "method": "PUT",
        "url": "Condition/cddf31a7-3416-40fd-9ea6-d399d0865a2a"
      }
    },
    {
      "fullUrl": "https://madie.cms.gov/Condition/d6aeeace-ff9a-432b-b99b-6c8a9ae71ab3",
      "resource": {
        "resourceType": "Condition",
        "id": "d6aeeace-ff9a-432b-b99b-6c8a9ae71ab3",
        "meta": {
          "profile": [
            "http://hl7.org/fhir/us/qicore/StructureDefinition/qicore-condition"
          ]
        },
        "category": [
          {
            "coding": [
              {
                "system": "http://terminology.hl7.org/CodeSystem/condition-category",
                "code": "encounter-diagnosis",
                "display": "Encounter Diagnosis"
              }
            ]
          }
        ],
        "code": {
          "coding": [
            {
              "system": "http://hl7.org/fhir/sid/icd-10-cm",
              "version": "2023",
              "code": "A32.7",
              "display": "Listerial sepsis",
              "userSelected": true
            }
          ]
        },
        "subject": {
          "reference": "Patient/1673e28d-155a-4975-972b-bcc4b1699977"
        },
        "recordedDate": "2024-10-26T08:00:00.000+00:00"
      },
      "request": {
        "method": "PUT",
        "url": "Condition/d6aeeace-ff9a-432b-b99b-6c8a9ae71ab3"
      }
    },
    {
      "fullUrl": "https://madie.cms.gov/Coverage/2935a675-a594-4dfc-82ec-50faec60a292",
      "resource": {
        "resourceType": "Coverage",
        "id": "2935a675-a594-4dfc-82ec-50faec60a292",
        "meta": {
          "profile": [
            "http://hl7.org/fhir/us/qicore/StructureDefinition/qicore-coverage"
          ]
        },
        "status": "active",
        "beneficiary": {
          "reference": "Patient/1673e28d-155a-4975-972b-bcc4b1699977"
        },
        "payor": [
          {
            "reference": "Organization/face2e30-d3c7-4925-a196-326c5ac2e004"
          }
        ]
      },
      "request": {
        "method": "PUT",
        "url": "Coverage/2935a675-a594-4dfc-82ec-50faec60a292"
      }
    },
    {
      "fullUrl": "https://madie.cms.gov/Organization/face2e30-d3c7-4925-a196-326c5ac2e004",
      "resource": {
        "resourceType": "Organization",
        "id": "face2e30-d3c7-4925-a196-326c5ac2e004",
        "meta": {
          "profile": [
            "http://hl7.org/fhir/us/qicore/StructureDefinition/qicore-organization"
          ]
        },
        "identifier": [
          {
            "use": "temp",
            "system": "urn:oid:2.16.840.1.113883.4.4",
            "value": "21-3259825"
          }
        ],
        "active": true,
        "type": [
          {
            "coding": [
              {
                "system": "http://terminology.hl7.org/CodeSystem/organization-type",
                "code": "pay",
                "display": "Payer"
              }
            ]
          }
        ],
        "name": "Blue Cross Blue Shield of Texas",
        "telecom": [
          {
            "system": "phone",
            "value": "(+1) 972-766-6900"
          }
        ],
        "address": [
          {
            "use": "billing",
            "type": "postal",
            "line": [
              "P.O. Box 660044"
            ],
            "city": "Dallas",
            "state": "TX",
            "postalCode": "75266-0044",
            "country": "USA"
          }
        ]
      },
      "request": {
        "method": "PUT",
        "url": "Organization/face2e30-d3c7-4925-a196-326c5ac2e004"
      }
    },
    {
      "fullUrl": "https://madie.cms.gov/Practitioner/b153586a-67ed-4991-b3a0-13ec7a642268",
      "resource": {
        "resourceType": "Practitioner",
        "id": "b153586a-67ed-4991-b3a0-13ec7a642268",
        "identifier": [
          {
            "system": "http://hl7.org/fhir/sid/us-npi",
            "value": "123456"
          }
        ],
        "name": [
          {
            "family": "Evil",
            "prefix": [
              "Dr"
            ]
          }
        ]
      },
      "request": {
        "method": "PUT",
        "url": "Practitioner/b153586a-67ed-4991-b3a0-13ec7a642268"
      }
    },
    {
      "fullUrl": "https://madie.cms.gov/MeasureReport/d9e7b67c-8f84-4912-8dc5-c71a64108a68",
      "resource": {
        "resourceType": "MeasureReport",
        "id": "d9e7b67c-8f84-4912-8dc5-c71a64108a68",
        "meta": {
          "profile": [
            "http://hl7.org/fhir/us/cqfmeasures/StructureDefinition/test-case-cqfm"
          ]
        },
        "contained": [
          {
            "resourceType": "Parameters",
            "id": "cd48a3b5-ee76-45c9-abf8-3fa13f965ba5-parameters",
            "parameter": [
              {
                "name": "subject",
                "valueString": "1673e28d-155a-4975-972b-bcc4b1699977"
              }
            ]
          }
        ],
        "extension": [
          {
            "url": "http://hl7.org/fhir/us/cqfmeasures/StructureDefinition/cqfm-inputParameters",
            "valueReference": {
              "reference": "#cd48a3b5-ee76-45c9-abf8-3fa13f965ba5-parameters"
            }
          },
          {
            "url": "http://hl7.org/fhir/us/cqfmeasures/StructureDefinition/cqfm-testCaseDescription",
            "valueMarkdown": "Complication (sepsis) on 1ST and 2nd encounter\n"
          }
        ],
        "modifierExtension": [
          {
            "url": "http://hl7.org/fhir/us/cqfmeasures/StructureDefinition/cqfm-isTestCase",
            "valueBoolean": true
          }
        ],
        "status": "complete",
        "type": "individual",
        "measure": "https://madie.cms.gov/Measure/SevereObstetricComplicationsFHIR",
        "period": {
          "start": "2024-01-01",
          "end": "2024-12-31"
        },
        "group": [
          {
            "population": [
              {
                "code": {
                  "coding": [
                    {
                      "system": "http://terminology.hl7.org/CodeSystem/measure-population",
                      "code": "initial-population",
                      "display": "Initial Population"
                    }
                  ]
                },
                "count": 2
              },
              {
                "code": {
                  "coding": [
                    {
                      "system": "http://terminology.hl7.org/CodeSystem/measure-population",
                      "code": "denominator",
                      "display": "Denominator"
                    }
                  ]
                },
                "count": 2
              },
              {
                "code": {
                  "coding": [
                    {
                      "system": "http://terminology.hl7.org/CodeSystem/measure-population",
                      "code": "denominator-exclusion",
                      "display": "Denominator Exclusion"
                    }
                  ]
                },
                "count": 0
              },
              {
                "code": {
                  "coding": [
                    {
                      "system": "http://terminology.hl7.org/CodeSystem/measure-population",
                      "code": "numerator",
                      "display": "Numerator"
                    }
                  ]
                },
                "count": 2
              }
            ]
          }
        ],
        "evaluatedResource": [
          {
            "reference": "Patient/1673e28d-155a-4975-972b-bcc4b1699977"
          },
          {
            "reference": "Observation/0d1566c7-320f-4788-9c11-140641e5cef7"
          },
          {
            "reference": "Observation/b5ed873d-23e4-4a96-a4ea-7a4d79a7984b"
          },
          {
            "reference": "Observation/51fc01b8-143f-4a61-8e83-794cde45c994"
          },
          {
            "reference": "Observation/2a466ce1-751f-468f-88db-9051335e57e3"
          },
          {
            "reference": "Encounter/a164a9cd-2d55-4f67-8747-ceb369cc2c37"
          },
          {
            "reference": "Encounter/737075e6-5a5a-4446-8bd9-2af97eacff07"
          },
          {
            "reference": "Procedure/b7456761-6565-4099-ac3e-d1ff56c65b0d"
          },
          {
            "reference": "Procedure/b7456761-6565-4099-ac3e-d1ff56c65b0d2"
          },
          {
            "reference": "Condition/cddf31a7-3416-40fd-9ea6-d399d0865a2a"
          },
          {
            "reference": "Condition/d6aeeace-ff9a-432b-b99b-6c8a9ae71ab3"
          },
          {
            "reference": "Coverage/2935a675-a594-4dfc-82ec-50faec60a292"
          },
          {
            "reference": "Organization/face2e30-d3c7-4925-a196-326c5ac2e004"
          },
          {
            "reference": "Practitioner/b153586a-67ed-4991-b3a0-13ec7a642268"
          }
        ]
      },
      "request": {
        "method": "PUT",
        "url": "MeasureReport/d9e7b67c-8f84-4912-8dc5-c71a64108a68"
      }
    }
  ]
}