{
  "resourceType": "Bundle",
  "id": "DENEXFail-HospiceServicesEndOnDec31B4MP",
  "type": "transaction",
  "entry": [
    {
      "fullUrl": "https://madie.cms.gov/Patient/459196c5-4b41-444a-a21c-5ed7e2fdc626",
      "resource": {
        "resourceType": "Patient",
        "id": "459196c5-4b41-444a-a21c-5ed7e2fdc626",
        "meta": {
          "profile": [
            "http://hl7.org/fhir/us/qicore/StructureDefinition/qicore-patient"
          ]
        },
        "extension": [
          {
            "url": "http://hl7.org/fhir/us/core/StructureDefinition/us-core-race",
            "extension": [
              {
                "url": "ombCategory",
                "valueCoding": {
                  "system": "urn:oid:2.16.840.1.113883.6.238",
                  "code": "2028-9",
                  "display": "Asian"
                }
              },
              {
                "url": "text",
                "valueString": "Asian"
              }
            ]
          },
          {
            "url": "http://hl7.org/fhir/us/core/StructureDefinition/us-core-ethnicity",
            "extension": [
              {
                "url": "ombCategory",
                "valueCoding": {
                  "system": "urn:oid:2.16.840.1.113883.6.238",
                  "code": "2135-2",
                  "display": "Hispanic or Latino"
                }
              },
              {
                "url": "text",
                "valueString": "Hispanic or Latino"
              }
            ]
          }
        ],
        "identifier": [
          {
            "system": "http://hospital.smarthealthit.org",
            "value": "999999995"
          }
        ],
        "name": [
          {
            "family": "Bertha",
            "given": [
              "Betty"
            ]
          }
        ],
        "gender": "female",
        "birthDate": "2005-01-01"
      },
      "request": {
        "method": "PUT",
        "url": "Patient/459196c5-4b41-444a-a21c-5ed7e2fdc626"
      }
    },
    {
      "fullUrl": "https://madie.cms.gov/Encounter/893d67f3-bf7a-4085-b644-6eedcdb374ee",
      "resource": {
        "resourceType": "Encounter",
        "id": "893d67f3-bf7a-4085-b644-6eedcdb374ee",
        "meta": {
          "profile": [
            "http://hl7.org/fhir/us/qicore/StructureDefinition/qicore-encounter"
          ]
        },
        "status": "finished",
        "class": {
          "system": "http://terminology.hl7.org/CodeSystem/v3-ActCode",
          "code": "AMB",
          "display": "ambulatory"
        },
        "type": [
          {
            "coding": [
              {
                "system": "http://www.ada.org/cdt",
                "code": "D0120",
                "display": "periodic oral evaluation - established patient"
              }
            ]
          }
        ],
        "subject": {
          "reference": "Patient/459196c5-4b41-444a-a21c-5ed7e2fdc626"
        },
        "period": {
          "start": "2025-01-01T00:00:00.000Z",
          "end": "2025-01-01T01:15:00.000Z"
        }
      },
      "request": {
        "method": "PUT",
        "url": "Encounter/893d67f3-bf7a-4085-b644-6eedcdb374ee"
      }
    },
    {
      "fullUrl": "https://madie.cms.gov/Encounter/893d67f3-bf7a-4085-b644-6eedcdb374ee.1",
      "resource": {
        "resourceType": "Encounter",
        "id": "893d67f3-bf7a-4085-b644-6eedcdb374ee.1",
        "meta": {
          "profile": [
            "http://hl7.org/fhir/us/qicore/StructureDefinition/qicore-encounter"
          ]
        },
        "status": "finished",
        "class": {
          "system": "http://terminology.hl7.org/CodeSystem/v3-ActCode",
          "code": "AMB",
          "display": "ambulatory"
        },
        "type": [
          {
            "coding": [
              {
                "system": "http://snomed.info/sct",
                "code": "183452005",
                "display": "Emergency hospital admission (procedure)"
              }
            ]
          }
        ],
        "subject": {
          "reference": "Patient/459196c5-4b41-444a-a21c-5ed7e2fdc626"
        },
        "period": {
          "start": "2024-12-31T00:00:00.000Z",
          "end": "2024-12-31T23:59:59.000Z"
        },
        "hospitalization": {
          "dischargeDisposition": {
            "coding": [
              {
                "system": "http://snomed.info/sct",
                "code": "428371000124100",
                "display": "Discharge to healthcare facility for hospice care (procedure)"
              }
            ]
          }
        }
      },
      "request": {
        "method": "PUT",
        "url": "Encounter/893d67f3-bf7a-4085-b644-6eedcdb374ee.1"
      }
    },
    {
      "fullUrl": "https://madie.cms.gov/MeasureReport/dfdeb1e0-9af0-49f6-bc6c-1927df3ada99",
      "resource": {
        "resourceType": "MeasureReport",
        "id": "dfdeb1e0-9af0-49f6-bc6c-1927df3ada99",
        "meta": {
          "profile": [
            "http://hl7.org/fhir/us/cqfmeasures/StructureDefinition/test-case-cqfm"
          ]
        },
        "contained": [
          {
            "resourceType": "Parameters",
            "id": "5c70fa1e-a27b-48f4-808a-a71ebb0fc569-parameters",
            "parameter": [
              {
                "name": "subject",
                "valueString": "459196c5-4b41-444a-a21c-5ed7e2fdc626"
              }
            ]
          }
        ],
        "extension": [
          {
            "url": "http://hl7.org/fhir/us/cqfmeasures/StructureDefinition/cqfm-inputParameters",
            "valueReference": {
              "reference": "#5c70fa1e-a27b-48f4-808a-a71ebb0fc569-parameters"
            }
          },
          {
            "url": "http://hl7.org/fhir/us/cqfmeasures/StructureDefinition/cqfm-testCaseDescription",
            "valueMarkdown": "Patient 20yo w/ an Oral Evaluation Encounter 1/1 of the MP & Hospice Encounter that ends on 1/1 of the MP."
          }
        ],
        "modifierExtension": [
          {
            "url": "http://hl7.org/fhir/us/cqfmeasures/StructureDefinition/cqfm-isTestCase",
            "valueBoolean": true
          }
        ],
        "status": "complete",
        "type": "individual",
        "measure": "https://madie.cms.gov/Measure/PrimaryCariesPreventionasOfferedbyDentistsFHIR",
        "period": {
          "start": "2025-01-01",
          "end": "2025-12-31"
        },
        "group": [
          {
            "population": [
              {
                "code": {
                  "coding": [
                    {
                      "system": "http://terminology.hl7.org/CodeSystem/measure-population",
                      "code": "initial-population",
                      "display": "Initial Population"
                    }
                  ]
                },
                "count": 1
              },
              {
                "code": {
                  "coding": [
                    {
                      "system": "http://terminology.hl7.org/CodeSystem/measure-population",
                      "code": "denominator",
                      "display": "Denominator"
                    }
                  ]
                },
                "count": 1
              },
              {
                "code": {
                  "coding": [
                    {
                      "system": "http://terminology.hl7.org/CodeSystem/measure-population",
                      "code": "denominator-exclusion",
                      "display": "Denominator Exclusion"
                    }
                  ]
                },
                "count": 0
              },
              {
                "code": {
                  "coding": [
                    {
                      "system": "http://terminology.hl7.org/CodeSystem/measure-population",
                      "code": "numerator",
                      "display": "Numerator"
                    }
                  ]
                },
                "count": 0
              }
            ]
          }
        ],
        "evaluatedResource": [
          {
            "reference": "Patient/459196c5-4b41-444a-a21c-5ed7e2fdc626"
          },
          {
            "reference": "Encounter/893d67f3-bf7a-4085-b644-6eedcdb374ee"
          },
          {
            "reference": "Encounter/893d67f3-bf7a-4085-b644-6eedcdb374ee.1"
          }
        ]
      },
      "request": {
        "method": "PUT",
        "url": "MeasureReport/dfdeb1e0-9af0-49f6-bc6c-1927df3ada99"
      }
    }
  ]
}