{
  "resourceType": "Bundle",
  "id": "6129131902c62a011f2e5b40",
  "type": "transaction",
  "entry": [
    {
      "fullUrl": "https://madie.cms.gov/Patient/034f45b9-b7ff-47e2-8713-572209662dec",
      "resource": {
        "resourceType": "Patient",
        "id": "034f45b9-b7ff-47e2-8713-572209662dec",
        "meta": {
          "profile": [
            "http://hl7.org/fhir/us/qicore/StructureDefinition/qicore-patient"
          ]
        },
        "text": {
          "status": "generated",
          "div": "<div xmlns=\"http://www.w3.org/1999/xhtml\"><div class=\"hapiHeaderText\">MedDscPatRsnDTimeEQEncStartTime <b>DENEXCEPPASS </b></div><table class=\"hapiPropertyTable\"><tbody><tr><td>Identifier</td><td>f27996c6545ea958dc5266f6c01bdf6c</td></tr><tr><td>Date of birth</td><td><span>21 August 1994</span></td></tr></tbody></table></div>"
        },
        "extension": [
          {
            "url": "http://hl7.org/fhir/us/core/StructureDefinition/us-core-race",
            "extension": [
              {
                "url": "ombCategory",
                "valueCoding": {
                  "system": "urn:oid:2.16.840.1.113883.6.238",
                  "code": "1002-5",
                  "display": "American Indian or Alaska Native",
                  "userSelected": true
                }
              },
              {
                "url": "text",
                "valueString": "American Indian or Alaska Native"
              }
            ]
          },
          {
            "url": "http://hl7.org/fhir/us/core/StructureDefinition/us-core-ethnicity",
            "extension": [
              {
                "url": "ombCategory",
                "valueCoding": {
                  "system": "urn:oid:2.16.840.1.113883.6.238",
                  "code": "2135-2",
                  "display": "Hispanic or Latino",
                  "userSelected": true
                }
              },
              {
                "url": "text",
                "valueString": "Hispanic or Latino"
              }
            ]
          }
        ],
        "identifier": [
          {
            "type": {
              "coding": [
                {
                  "system": "http://terminology.hl7.org/CodeSystem/v2-0203",
                  "code": "MR"
                }
              ]
            },
            "system": "https://bonnie-fhir.healthit.gov/",
            "value": "6129131902c62a011f2e5b40"
          }
        ],
        "active": true,
        "name": [
          {
            "use": "usual",
            "family": "DENEXCEPPass",
            "given": [
              "MedDscPatRsnDTimeEQEncStartTime"
            ]
          }
        ],
        "gender": "male",
        "birthDate": "1994-08-21"
      },
      "request": {
        "method": "PUT",
        "url": "Patient/034f45b9-b7ff-47e2-8713-572209662dec"
      }
    },
    {
      "fullUrl": "https://madie.cms.gov/Encounter/b7febd24-17ad-4d92-a57b-920e87000ad4",
      "resource": {
        "resourceType": "Encounter",
        "id": "b7febd24-17ad-4d92-a57b-920e87000ad4",
        "meta": {
          "profile": [
            "http://hl7.org/fhir/us/qicore/StructureDefinition/qicore-encounter"
          ]
        },
        "status": "finished",
        "class": {
          "system": "http://terminology.hl7.org/CodeSystem/v3-ActCode",
          "code": "IMP",
          "display": "inpatient encounter",
          "userSelected": true
        },
        "type": [
          {
            "coding": [
              {
                "system": "http://snomed.info/sct",
                "code": "32485007"
              }
            ]
          }
        ],
        "subject": {
          "reference": "Patient/034f45b9-b7ff-47e2-8713-572209662dec"
        },
        "period": {
          "start": "2025-10-10T09:30:00.000+00:00",
          "end": "2025-10-12T10:30:00.000+00:00"
        },
        "length": {
          "value": 2,
          "unit": "days"
        },
        "diagnosis": [
          {
            "condition": {
              "reference": "Condition/a1de35ec-76ff-4827-9a7d-3a8e29de63ed"
            },
            "use": {
              "coding": [
                {
                  "system": "http://terminology.hl7.org/CodeSystem/diagnosis-role",
                  "code": "billing",
                  "display": "Billing"
                }
              ]
            },
            "rank": 1
          }
        ]
      },
      "request": {
        "method": "PUT",
        "url": "Encounter/b7febd24-17ad-4d92-a57b-920e87000ad4"
      }
    },
    {
      "fullUrl": "https://madie.cms.gov/MedicationRequest/6a00116b-98db-4d17-bd24-ff75cbb1a585",
      "resource": {
        "resourceType": "MedicationRequest",
        "id": "6a00116b-98db-4d17-bd24-ff75cbb1a585",
        "meta": {
          "profile": [
            "http://hl7.org/fhir/us/qicore/StructureDefinition/qicore-mednotrequested"
          ]
        },
        "extension": [
          {
            "url": "http://hl7.org/fhir/us/qicore/StructureDefinition/qicore-medicationnotrequested",
            "valueCodeableConcept": {
              "coding": [
                {
                  "system": "http://www.nlm.nih.gov/research/umls/rxnorm",
                  "code": "1037045",
                  "display": "dabigatran etexilate 150 MG Oral Capsule",
                  "userSelected": true
                }
              ]
            }
          }
        ],
        "status": "completed",
        "intent": "order",
        "category": [
          {
            "coding": [
              {
                "system": "http://terminology.hl7.org/CodeSystem/medicationrequest-category",
                "code": "community"
              }
            ]
          }
        ],
        "doNotPerform": true,
        "medicationCodeableConcept": {
          "coding": [
            {
              "system": "http://www.nlm.nih.gov/research/umls/rxnorm",
              "code": "1037045",
              "display": "dabigatran etexilate 150 MG Oral Capsule",
              "userSelected": true
            }
          ]
        },
        "subject": {
          "reference": "Patient/034f45b9-b7ff-47e2-8713-572209662dec"
        },
        "authoredOn": "2025-10-10T09:30:00.000+00:00",
        "requester": {
          "reference": "Practitioner/example"
        },
        "reasonCode": [
          {
            "coding": [
              {
                "system": "http://snomed.info/sct",
                "code": "443390004",
                "display": "Refused"
              }
            ]
          }
        ]
      },
      "request": {
        "method": "PUT",
        "url": "MedicationRequest/6a00116b-98db-4d17-bd24-ff75cbb1a585"
      }
    },
    {
      "fullUrl": "https://madie.cms.gov/Condition/a1de35ec-76ff-4827-9a7d-3a8e29de63ed",
      "resource": {
        "resourceType": "Condition",
        "id": "a1de35ec-76ff-4827-9a7d-3a8e29de63ed",
        "meta": {
          "profile": [
            "http://hl7.org/fhir/us/qicore/StructureDefinition/qicore-condition"
          ]
        },
        "clinicalStatus": {
          "coding": [
            {
              "system": "http://terminology.hl7.org/CodeSystem/condition-clinical",
              "code": "active"
            }
          ]
        },
        "verificationStatus": {
          "coding": [
            {
              "system": "http://terminology.hl7.org/CodeSystem/condition-ver-status",
              "code": "confirmed"
            }
          ]
        },
        "category": [
          {
            "coding": [
              {
                "system": "http://terminology.hl7.org/CodeSystem/condition-category",
                "code": "encounter-diagnosis",
                "display": "Encounter Diagnosis"
              }
            ]
          }
        ],
        "code": {
          "coding": [
            {
              "system": "http://snomed.info/sct",
              "version": "2020-09",
              "code": "111297002",
              "display": "Nonparalytic stroke (disorder)",
              "userSelected": true
            }
          ]
        },
        "subject": {
          "reference": "Patient/034f45b9-b7ff-47e2-8713-572209662dec"
        },
        "recordedDate": "2025-07-13T08:00:00.000+00:00"
      },
      "request": {
        "method": "PUT",
        "url": "Condition/a1de35ec-76ff-4827-9a7d-3a8e29de63ed"
      }
    },
    {
      "fullUrl": "https://madie.cms.gov/Coverage/ece2b65a-725b-405f-8fbd-6906f184dc3c",
      "resource": {
        "resourceType": "Coverage",
        "id": "ece2b65a-725b-405f-8fbd-6906f184dc3c",
        "meta": {
          "profile": [
            "http://hl7.org/fhir/us/qicore/StructureDefinition/qicore-coverage"
          ]
        },
        "status": "active",
        "beneficiary": {
          "reference": "Patient/034f45b9-b7ff-47e2-8713-572209662dec"
        },
        "payor": [
          {
            "reference": "Organization/a9067249-1316-4b66-aeb9-48b801142f0e"
          }
        ]
      },
      "request": {
        "method": "PUT",
        "url": "Coverage/ece2b65a-725b-405f-8fbd-6906f184dc3c"
      }
    },
    {
      "fullUrl": "https://madie.cms.gov/Organization/a9067249-1316-4b66-aeb9-48b801142f0e",
      "resource": {
        "resourceType": "Organization",
        "id": "a9067249-1316-4b66-aeb9-48b801142f0e",
        "meta": {
          "profile": [
            "http://hl7.org/fhir/us/qicore/StructureDefinition/qicore-organization"
          ]
        },
        "identifier": [
          {
            "use": "temp",
            "system": "urn:oid:2.16.840.1.113883.4.4",
            "value": "21-3259825"
          }
        ],
        "active": true,
        "type": [
          {
            "coding": [
              {
                "system": "http://terminology.hl7.org/CodeSystem/organization-type",
                "code": "pay",
                "display": "Payer"
              }
            ]
          }
        ],
        "name": "Blue Cross Blue Shield of Texas",
        "telecom": [
          {
            "system": "phone",
            "value": "(+1) 972-766-6900"
          }
        ],
        "address": [
          {
            "use": "billing",
            "type": "postal",
            "line": [
              "P.O. Box 660044"
            ],
            "city": "Dallas",
            "state": "TX",
            "postalCode": "75266-0044",
            "country": "USA"
          }
        ]
      },
      "request": {
        "method": "PUT",
        "url": "Organization/a9067249-1316-4b66-aeb9-48b801142f0e"
      }
    },
    {
      "fullUrl": "https://madie.cms.gov/MeasureReport/8294fcf2-b473-4647-a57c-d65944562e50",
      "resource": {
        "resourceType": "MeasureReport",
        "id": "8294fcf2-b473-4647-a57c-d65944562e50",
        "meta": {
          "profile": [
            "http://hl7.org/fhir/us/cqfmeasures/StructureDefinition/test-case-cqfm"
          ]
        },
        "contained": [
          {
            "resourceType": "Parameters",
            "id": "faca48e5-66a1-4cf8-82da-9e55141925c0-parameters",
            "parameter": [
              {
                "name": "subject",
                "valueString": "034f45b9-b7ff-47e2-8713-572209662dec"
              }
            ]
          }
        ],
        "extension": [
          {
            "url": "http://hl7.org/fhir/us/cqfmeasures/StructureDefinition/cqfm-inputParameters",
            "valueReference": {
              "reference": "#faca48e5-66a1-4cf8-82da-9e55141925c0-parameters"
            }
          },
          {
            "url": "http://hl7.org/fhir/us/cqfmeasures/StructureDefinition/cqfm-testCaseDescription",
            "valueMarkdown": "Patient does not get antithrombotic medication due to patient refusal during IP encounter. This case tests the timing boundary for den exception criteria, refusal at start of encounter. \n"
          }
        ],
        "modifierExtension": [
          {
            "url": "http://hl7.org/fhir/us/cqfmeasures/StructureDefinition/cqfm-isTestCase",
            "valueBoolean": true
          }
        ],
        "status": "complete",
        "type": "individual",
        "measure": "https://madie.cms.gov/Measure/DischargedonAntithromboticTherapyFHIR",
        "period": {
          "start": "2025-01-01",
          "end": "2025-12-31"
        },
        "group": [
          {
            "population": [
              {
                "code": {
                  "coding": [
                    {
                      "system": "http://terminology.hl7.org/CodeSystem/measure-population",
                      "code": "initial-population",
                      "display": "Initial Population"
                    }
                  ]
                },
                "count": 1
              },
              {
                "code": {
                  "coding": [
                    {
                      "system": "http://terminology.hl7.org/CodeSystem/measure-population",
                      "code": "denominator",
                      "display": "Denominator"
                    }
                  ]
                },
                "count": 1
              },
              {
                "code": {
                  "coding": [
                    {
                      "system": "http://terminology.hl7.org/CodeSystem/measure-population",
                      "code": "denominator-exclusion",
                      "display": "Denominator Exclusion"
                    }
                  ]
                },
                "count": 0
              },
              {
                "code": {
                  "coding": [
                    {
                      "system": "http://terminology.hl7.org/CodeSystem/measure-population",
                      "code": "numerator",
                      "display": "Numerator"
                    }
                  ]
                },
                "count": 0
              },
              {
                "code": {
                  "coding": [
                    {
                      "system": "http://terminology.hl7.org/CodeSystem/measure-population",
                      "code": "denominator-exception",
                      "display": "Denominator Exception"
                    }
                  ]
                },
                "count": 1
              }
            ]
          }
        ],
        "evaluatedResource": [
          {
            "reference": "Patient/034f45b9-b7ff-47e2-8713-572209662dec"
          },
          {
            "reference": "Encounter/b7febd24-17ad-4d92-a57b-920e87000ad4"
          },
          {
            "reference": "MedicationRequest/6a00116b-98db-4d17-bd24-ff75cbb1a585"
          },
          {
            "reference": "Condition/a1de35ec-76ff-4827-9a7d-3a8e29de63ed"
          },
          {
            "reference": "Coverage/ece2b65a-725b-405f-8fbd-6906f184dc3c"
          },
          {
            "reference": "Organization/a9067249-1316-4b66-aeb9-48b801142f0e"
          }
        ]
      },
      "request": {
        "method": "PUT",
        "url": "MeasureReport/8294fcf2-b473-4647-a57c-d65944562e50"
      }
    }
  ]
}