{
  "resourceType": "Bundle",
  "id": "633b3f9e0968f80122503cd5",
  "type": "transaction",
  "entry": [
    {
      "fullUrl": "https://madie.cms.gov/Patient/69dd6548-d8f8-42e8-9577-ee1b6ec91a72",
      "resource": {
        "resourceType": "Patient",
        "id": "69dd6548-d8f8-42e8-9577-ee1b6ec91a72",
        "meta": {
          "profile": [
            "http://hl7.org/fhir/us/qicore/StructureDefinition/qicore-patient"
          ]
        },
        "text": {
          "status": "generated",
          "div": "<div xmlns=\"http://www.w3.org/1999/xhtml\"><div class=\"hapiHeaderText\">LastAssPrfEstDELRelvTm_00Hr01Min00Sec <b>DENOMFAIL </b></div><table class=\"hapiPropertyTable\"><tbody><tr><td>Date of birth</td><td><span>01 February 2004</span></td></tr></tbody></table></div>"
        },
        "extension": [
          {
            "url": "http://hl7.org/fhir/us/core/StructureDefinition/us-core-race",
            "extension": [
              {
                "url": "ombCategory",
                "valueCoding": {
                  "system": "urn:oid:2.16.840.1.113883.6.238",
                  "code": "1002-5",
                  "display": "American Indian or Alaska Native",
                  "userSelected": true
                }
              },
              {
                "url": "text",
                "valueString": "American Indian or Alaska Native"
              }
            ]
          },
          {
            "url": "http://hl7.org/fhir/us/core/StructureDefinition/us-core-ethnicity",
            "extension": [
              {
                "url": "ombCategory",
                "valueCoding": {
                  "system": "urn:oid:2.16.840.1.113883.6.238",
                  "code": "2135-2",
                  "display": "Hispanic or Latino",
                  "userSelected": true
                }
              },
              {
                "url": "text",
                "valueString": "Hispanic or Latino"
              }
            ]
          }
        ],
        "identifier": [
          {
            "type": {
              "coding": [
                {
                  "system": "http://terminology.hl7.org/CodeSystem/v2-0203",
                  "code": "MR"
                }
              ]
            },
            "system": "https://bonnie-fhir.healthit.gov/",
            "value": "633b3f9e0968f80122503cd5"
          }
        ],
        "active": true,
        "name": [
          {
            "use": "usual",
            "family": "DENOMFail",
            "given": [
              "LastAssPrfEstDELRelvTm_00Hr01Min00Sec"
            ]
          }
        ],
        "gender": "female",
        "birthDate": "2004-02-01"
      },
      "request": {
        "method": "PUT",
        "url": "Patient/69dd6548-d8f8-42e8-9577-ee1b6ec91a72"
      }
    },
    {
      "fullUrl": "https://madie.cms.gov/Observation/1306a864-072c-4106-85da-bbea15749bc6",
      "resource": {
        "resourceType": "Observation",
        "id": "1306a864-072c-4106-85da-bbea15749bc6",
        "meta": {
          "profile": [
            "http://hl7.org/fhir/us/qicore/StructureDefinition/qicore-observation"
          ]
        },
        "status": "final",
        "category": [
          {
            "coding": [
              {
                "system": "http://terminology.hl7.org/CodeSystem/observation-category",
                "code": "exam",
                "display": "exam",
                "userSelected": true
              }
            ]
          }
        ],
        "code": {
          "coding": [
            {
              "system": "http://loinc.org",
              "code": "93857-1"
            }
          ]
        },
        "subject": {
          "reference": "Patient/69dd6548-d8f8-42e8-9577-ee1b6ec91a72"
        },
        "effectiveDateTime": "2024-02-01T08:00:00.000+00:00",
        "valueDateTime": "2024-02-01T08:00:00+00:00"
      },
      "request": {
        "method": "PUT",
        "url": "Observation/1306a864-072c-4106-85da-bbea15749bc6"
      }
    },
    {
      "fullUrl": "https://madie.cms.gov/Observation/67bfac5a-09be-46c9-ac5d-f7eae715c2bf",
      "resource": {
        "resourceType": "Observation",
        "id": "67bfac5a-09be-46c9-ac5d-f7eae715c2bf",
        "meta": {
          "profile": [
            "http://hl7.org/fhir/us/qicore/StructureDefinition/qicore-observation"
          ]
        },
        "status": "final",
        "category": [
          {
            "coding": [
              {
                "system": "http://terminology.hl7.org/CodeSystem/observation-category",
                "code": "exam",
                "display": "exam",
                "userSelected": true
              }
            ]
          }
        ],
        "code": {
          "coding": [
            {
              "system": "http://loinc.org",
              "code": "11778-8"
            }
          ]
        },
        "subject": {
          "reference": "Patient/69dd6548-d8f8-42e8-9577-ee1b6ec91a72"
        },
        "effectiveDateTime": "2024-02-01T08:01:00.000+00:00",
        "valueDateTime": "2024-02-01T08:00:00.000+00:00"
      },
      "request": {
        "method": "PUT",
        "url": "Observation/67bfac5a-09be-46c9-ac5d-f7eae715c2bf"
      }
    },
    {
      "fullUrl": "https://madie.cms.gov/Encounter/122d242e-0d8d-4787-9caa-e049561501a9",
      "resource": {
        "resourceType": "Encounter",
        "id": "122d242e-0d8d-4787-9caa-e049561501a9",
        "meta": {
          "profile": [
            "http://hl7.org/fhir/us/qicore/StructureDefinition/qicore-encounter"
          ]
        },
        "status": "finished",
        "class": {
          "system": "http://terminology.hl7.org/CodeSystem/v3-ActCode",
          "code": "IMP",
          "display": "inpatient encounter"
        },
        "type": [
          {
            "coding": [
              {
                "system": "http://snomed.info/sct",
                "code": "183452005"
              }
            ]
          }
        ],
        "subject": {
          "reference": "Patient/69dd6548-d8f8-42e8-9577-ee1b6ec91a72"
        },
        "period": {
          "start": "2024-02-01T08:00:00.000Z",
          "end": "2024-02-05T08:15:00.000Z"
        }
      },
      "request": {
        "method": "PUT",
        "url": "Encounter/122d242e-0d8d-4787-9caa-e049561501a9"
      }
    },
    {
      "fullUrl": "https://madie.cms.gov/Coverage/01872d4a-2818-4734-9ea0-dd78cc047b8a",
      "resource": {
        "resourceType": "Coverage",
        "id": "01872d4a-2818-4734-9ea0-dd78cc047b8a",
        "status": "active",
        "beneficiary": {
          "reference": "Patient/69dd6548-d8f8-42e8-9577-ee1b6ec91a72"
        },
        "period": {
          "start": "2004-02-01T08:00:00.000Z"
        },
        "payor": [
          {
            "reference": "Organization/c8e52b59-b4a7-4dd7-9f98-32056f99ef28"
          }
        ]
      },
      "request": {
        "method": "PUT",
        "url": "Coverage/01872d4a-2818-4734-9ea0-dd78cc047b8a"
      }
    },
    {
      "fullUrl": "https://madie.cms.gov/Procedure/4f3e723b-17cf-4233-a631-bf227adfa4e8",
      "resource": {
        "resourceType": "Procedure",
        "id": "4f3e723b-17cf-4233-a631-bf227adfa4e8",
        "meta": {
          "profile": [
            "http://hl7.org/fhir/us/qicore/StructureDefinition/qicore-procedure"
          ]
        },
        "extension": [
          {
            "url": "http://hl7.org/fhir/us/qicore/StructureDefinition/qicore-recorded",
            "valueDateTime": "2013-04-05T09:35:00-04:00"
          }
        ],
        "status": "completed",
        "code": {
          "coding": [
            {
              "system": "http://snomed.info/sct",
              "code": "10745001"
            }
          ]
        },
        "subject": {
          "reference": "Patient/69dd6548-d8f8-42e8-9577-ee1b6ec91a72"
        },
        "performedPeriod": {
          "start": "2024-02-01T08:00:00.000Z",
          "end": "2024-02-05T08:15:00.000Z"
        }
      },
      "request": {
        "method": "PUT",
        "url": "Procedure/4f3e723b-17cf-4233-a631-bf227adfa4e8"
      }
    },
    {
      "fullUrl": "https://madie.cms.gov/Organization/c8e52b59-b4a7-4dd7-9f98-32056f99ef28",
      "resource": {
        "resourceType": "Organization",
        "id": "c8e52b59-b4a7-4dd7-9f98-32056f99ef28",
        "meta": {
          "profile": [
            "http://hl7.org/fhir/us/qicore/StructureDefinition/qicore-organization"
          ]
        },
        "identifier": [
          {
            "use": "temp",
            "system": "urn:oid:2.16.840.1.113883.4.4",
            "value": "21-3259825"
          }
        ],
        "active": true,
        "type": [
          {
            "coding": [
              {
                "system": "http://terminology.hl7.org/CodeSystem/organization-type",
                "code": "pay",
                "display": "Payer"
              }
            ]
          }
        ],
        "name": "Blue Cross Blue Shield of Texas",
        "telecom": [
          {
            "system": "phone",
            "value": "(+1) 972-766-6900"
          }
        ],
        "address": [
          {
            "use": "billing",
            "type": "postal",
            "line": [
              "P.O. Box 660044"
            ],
            "city": "Dallas",
            "state": "TX",
            "postalCode": "75266-0044",
            "country": "USA"
          }
        ]
      },
      "request": {
        "method": "PUT",
        "url": "Organization/c8e52b59-b4a7-4dd7-9f98-32056f99ef28"
      }
    },
    {
      "fullUrl": "https://madie.cms.gov/Practitioner/1a3a5851-436a-4f73-9486-c97746e97360",
      "resource": {
        "resourceType": "Practitioner",
        "id": "1a3a5851-436a-4f73-9486-c97746e97360",
        "identifier": [
          {
            "system": "http://hl7.org/fhir/sid/us-npi",
            "value": "123456"
          }
        ],
        "name": [
          {
            "family": "Evil",
            "prefix": [
              "Dr"
            ]
          }
        ]
      },
      "request": {
        "method": "PUT",
        "url": "Practitioner/1a3a5851-436a-4f73-9486-c97746e97360"
      }
    },
    {
      "fullUrl": "https://madie.cms.gov/MeasureReport/d540b864-c8a3-4c49-86b1-de602f2c58e0",
      "resource": {
        "resourceType": "MeasureReport",
        "id": "d540b864-c8a3-4c49-86b1-de602f2c58e0",
        "meta": {
          "profile": [
            "http://hl7.org/fhir/us/cqfmeasures/StructureDefinition/test-case-cqfm"
          ]
        },
        "contained": [
          {
            "resourceType": "Parameters",
            "id": "b0c19a41-5d1e-4dd6-a841-3a5cc479ef5d-parameters",
            "parameter": [
              {
                "name": "subject",
                "valueString": "69dd6548-d8f8-42e8-9577-ee1b6ec91a72"
              }
            ]
          }
        ],
        "extension": [
          {
            "url": "http://hl7.org/fhir/us/cqfmeasures/StructureDefinition/cqfm-inputParameters",
            "valueReference": {
              "reference": "#b0c19a41-5d1e-4dd6-a841-3a5cc479ef5d-parameters"
            }
          },
          {
            "url": "http://hl7.org/fhir/us/cqfmeasures/StructureDefinition/cqfm-testCaseDescription",
            "valueMarkdown": "Last assessment Performed, Estimated Delivery Date, Relevant time, 1 min after Delivery Result Date/Time\n"
          }
        ],
        "modifierExtension": [
          {
            "url": "http://hl7.org/fhir/us/cqfmeasures/StructureDefinition/cqfm-isTestCase",
            "valueBoolean": true
          }
        ],
        "status": "complete",
        "type": "individual",
        "measure": "https://madie.cms.gov/Measure/SevereObstetricComplicationsFHIR",
        "period": {
          "start": "2024-01-01",
          "end": "2024-12-31"
        },
        "group": [
          {
            "population": [
              {
                "code": {
                  "coding": [
                    {
                      "system": "http://terminology.hl7.org/CodeSystem/measure-population",
                      "code": "initial-population",
                      "display": "Initial Population"
                    }
                  ]
                },
                "count": 1
              },
              {
                "code": {
                  "coding": [
                    {
                      "system": "http://terminology.hl7.org/CodeSystem/measure-population",
                      "code": "denominator",
                      "display": "Denominator"
                    }
                  ]
                },
                "count": 0
              },
              {
                "code": {
                  "coding": [
                    {
                      "system": "http://terminology.hl7.org/CodeSystem/measure-population",
                      "code": "denominator-exclusion",
                      "display": "Denominator Exclusion"
                    }
                  ]
                },
                "count": 0
              },
              {
                "code": {
                  "coding": [
                    {
                      "system": "http://terminology.hl7.org/CodeSystem/measure-population",
                      "code": "numerator",
                      "display": "Numerator"
                    }
                  ]
                },
                "count": 0
              }
            ]
          }
        ],
        "evaluatedResource": [
          {
            "reference": "Patient/69dd6548-d8f8-42e8-9577-ee1b6ec91a72"
          },
          {
            "reference": "Observation/1306a864-072c-4106-85da-bbea15749bc6"
          },
          {
            "reference": "Observation/67bfac5a-09be-46c9-ac5d-f7eae715c2bf"
          },
          {
            "reference": "Encounter/122d242e-0d8d-4787-9caa-e049561501a9"
          },
          {
            "reference": "Coverage/01872d4a-2818-4734-9ea0-dd78cc047b8a"
          },
          {
            "reference": "Procedure/4f3e723b-17cf-4233-a631-bf227adfa4e8"
          },
          {
            "reference": "Organization/c8e52b59-b4a7-4dd7-9f98-32056f99ef28"
          },
          {
            "reference": "Practitioner/1a3a5851-436a-4f73-9486-c97746e97360"
          }
        ]
      },
      "request": {
        "method": "PUT",
        "url": "MeasureReport/d540b864-c8a3-4c49-86b1-de602f2c58e0"
      }
    }
  ]
}