{
  "resourceType": "Bundle",
  "id": "6359776b6aee9629c8298235",
  "type": "transaction",
  "entry": [
    {
      "fullUrl": "https://madie.cms.gov/Patient/3134a396-b151-4708-9e23-c961c4a73471",
      "resource": {
        "resourceType": "Patient",
        "id": "3134a396-b151-4708-9e23-c961c4a73471",
        "meta": {
          "profile": [
            "http://hl7.org/fhir/us/qicore/StructureDefinition/qicore-patient"
          ]
        },
        "text": {
          "status": "generated",
          "div": "<div xmlns=\"http://www.w3.org/1999/xhtml\"><div class=\"hapiHeaderText\">RISKWBCRsltDtTimeEQDelStart <b>RISKFail </b></div><table class=\"hapiPropertyTable\"><tbody><tr><td>Date of birth</td><td><span>01 February 2004</span></td></tr></tbody></table></div>"
        },
        "extension": [
          {
            "url": "http://hl7.org/fhir/us/core/StructureDefinition/us-core-race",
            "extension": [
              {
                "url": "ombCategory",
                "valueCoding": {
                  "system": "urn:oid:2.16.840.1.113883.6.238",
                  "code": "1002-5",
                  "display": "American Indian or Alaska Native",
                  "userSelected": true
                }
              },
              {
                "url": "text",
                "valueString": "American Indian or Alaska Native"
              }
            ]
          },
          {
            "url": "http://hl7.org/fhir/us/core/StructureDefinition/us-core-ethnicity",
            "extension": [
              {
                "url": "ombCategory",
                "valueCoding": {
                  "system": "urn:oid:2.16.840.1.113883.6.238",
                  "code": "2135-2",
                  "display": "Hispanic or Latino",
                  "userSelected": true
                }
              },
              {
                "url": "text",
                "valueString": "Hispanic or Latino"
              }
            ]
          }
        ],
        "identifier": [
          {
            "type": {
              "coding": [
                {
                  "system": "http://terminology.hl7.org/CodeSystem/v2-0203",
                  "code": "MR"
                }
              ]
            },
            "system": "https://bonnie-fhir.healthit.gov/",
            "value": "6359776b6aee9629c8298235"
          }
        ],
        "active": true,
        "name": [
          {
            "use": "usual",
            "family": "RiskFail",
            "given": [
              "RISKWBCRsltDtTimeEQDelStart"
            ]
          }
        ],
        "gender": "female",
        "birthDate": "2004-02-01"
      },
      "request": {
        "method": "PUT",
        "url": "Patient/3134a396-b151-4708-9e23-c961c4a73471"
      }
    },
    {
      "fullUrl": "https://madie.cms.gov/Observation/e9ececc0-0ae6-42a1-bf46-5ec7cf760171",
      "resource": {
        "resourceType": "Observation",
        "id": "e9ececc0-0ae6-42a1-bf46-5ec7cf760171",
        "meta": {
          "profile": [
            "http://hl7.org/fhir/us/qicore/StructureDefinition/qicore-observation"
          ]
        },
        "status": "final",
        "category": [
          {
            "coding": [
              {
                "system": "http://terminology.hl7.org/CodeSystem/observation-category",
                "code": "exam",
                "display": "exam",
                "userSelected": true
              }
            ]
          }
        ],
        "code": {
          "coding": [
            {
              "system": "http://loinc.org",
              "code": "93857-1"
            }
          ]
        },
        "subject": {
          "reference": "Patient/3134a396-b151-4708-9e23-c961c4a73471"
        },
        "effectiveDateTime": "2024-02-01T08:00:00.000+00:00",
        "valueDateTime": "2024-02-01T08:00:00+00:00"
      },
      "request": {
        "method": "PUT",
        "url": "Observation/e9ececc0-0ae6-42a1-bf46-5ec7cf760171"
      }
    },
    {
      "fullUrl": "https://madie.cms.gov/Observation/160a83a1-06fe-4091-ab85-1b7bca8fdeb8",
      "resource": {
        "resourceType": "Observation",
        "id": "160a83a1-06fe-4091-ab85-1b7bca8fdeb8",
        "meta": {
          "profile": [
            "http://hl7.org/fhir/us/qicore/StructureDefinition/qicore-observation"
          ]
        },
        "status": "final",
        "category": [
          {
            "coding": [
              {
                "system": "http://terminology.hl7.org/CodeSystem/observation-category",
                "code": "exam",
                "display": "exam",
                "userSelected": true
              }
            ]
          }
        ],
        "code": {
          "coding": [
            {
              "system": "http://loinc.org",
              "code": "11884-4"
            }
          ]
        },
        "subject": {
          "reference": "Patient/3134a396-b151-4708-9e23-c961c4a73471"
        },
        "effectiveDateTime": "2024-02-01T08:00:00.000+00:00",
        "valueQuantity": {
          "value": 21,
          "system": "http://unitsofmeasure.org",
          "code": "wk"
        }
      },
      "request": {
        "method": "PUT",
        "url": "Observation/160a83a1-06fe-4091-ab85-1b7bca8fdeb8"
      }
    },
    {
      "fullUrl": "https://madie.cms.gov/Encounter/1a7faeda-c163-41d4-baf8-b062d0d9306e",
      "resource": {
        "resourceType": "Encounter",
        "id": "1a7faeda-c163-41d4-baf8-b062d0d9306e",
        "meta": {
          "profile": [
            "http://hl7.org/fhir/us/qicore/StructureDefinition/qicore-encounter"
          ]
        },
        "status": "finished",
        "class": {
          "system": "http://terminology.hl7.org/CodeSystem/v3-ActCode",
          "code": "IMP",
          "display": "inpatient encounter"
        },
        "type": [
          {
            "coding": [
              {
                "system": "http://snomed.info/sct",
                "code": "183452005"
              }
            ]
          }
        ],
        "subject": {
          "reference": "Patient/3134a396-b151-4708-9e23-c961c4a73471"
        },
        "period": {
          "start": "2024-02-01T08:00:00.000Z",
          "end": "2024-02-05T08:15:00.000Z"
        }
      },
      "request": {
        "method": "PUT",
        "url": "Encounter/1a7faeda-c163-41d4-baf8-b062d0d9306e"
      }
    },
    {
      "fullUrl": "https://madie.cms.gov/Encounter/98271605-48fb-4880-96bf-d9200e62a288",
      "resource": {
        "resourceType": "Encounter",
        "id": "98271605-48fb-4880-96bf-d9200e62a288",
        "meta": {
          "profile": [
            "http://hl7.org/fhir/us/qicore/StructureDefinition/qicore-encounter"
          ]
        },
        "status": "finished",
        "class": {
          "system": "http://terminology.hl7.org/CodeSystem/v3-ActCode",
          "code": "EMER",
          "display": "emergency"
        },
        "type": [
          {
            "coding": [
              {
                "system": "http://snomed.info/sct",
                "code": "4525004"
              }
            ]
          }
        ],
        "subject": {
          "reference": "Patient/3134a396-b151-4708-9e23-c961c4a73471"
        },
        "period": {
          "start": "2024-02-01T07:00:00.000Z",
          "end": "2024-02-01T07:59:00.000Z"
        }
      },
      "request": {
        "method": "PUT",
        "url": "Encounter/98271605-48fb-4880-96bf-d9200e62a288"
      }
    },
    {
      "fullUrl": "https://madie.cms.gov/Procedure/7eb8765f-3815-49f2-82f1-94e0341d2dde",
      "resource": {
        "resourceType": "Procedure",
        "id": "7eb8765f-3815-49f2-82f1-94e0341d2dde",
        "meta": {
          "profile": [
            "http://hl7.org/fhir/us/qicore/StructureDefinition/qicore-procedure"
          ]
        },
        "extension": [
          {
            "url": "http://hl7.org/fhir/us/qicore/StructureDefinition/qicore-recorded",
            "valueDateTime": "2024-02-04T09:35:00-04:00"
          }
        ],
        "status": "completed",
        "code": {
          "coding": [
            {
              "system": "http://snomed.info/sct",
              "code": "10745001"
            }
          ]
        },
        "subject": {
          "reference": "Patient/3134a396-b151-4708-9e23-c961c4a73471"
        },
        "performedPeriod": {
          "start": "2024-02-01T08:00:00.000Z",
          "end": "2024-02-05T08:15:00.000Z"
        }
      },
      "request": {
        "method": "PUT",
        "url": "Procedure/7eb8765f-3815-49f2-82f1-94e0341d2dde"
      }
    },
    {
      "fullUrl": "https://madie.cms.gov/Observation/7b2c6370-ce82-4ea6-8ad4-51af64f0609c",
      "resource": {
        "resourceType": "Observation",
        "id": "7b2c6370-ce82-4ea6-8ad4-51af64f0609c",
        "meta": {
          "profile": [
            "http://hl7.org/fhir/us/core/StructureDefinition/us-core-observation-lab"
          ]
        },
        "status": "final",
        "category": [
          {
            "coding": [
              {
                "system": "http://terminology.hl7.org/CodeSystem/observation-category",
                "code": "laboratory",
                "display": "laboratory",
                "userSelected": true
              }
            ]
          }
        ],
        "code": {
          "coding": [
            {
              "system": "http://loinc.org",
              "version": "2.73",
              "code": "26464-8",
              "display": "Leukocytes [#/volume] in Blood",
              "userSelected": true
            }
          ]
        },
        "subject": {
          "reference": "Patient/3134a396-b151-4708-9e23-c961c4a73471"
        },
        "effectiveDateTime": "2024-02-01T08:00:00.000+00:00",
        "issued": "2024-02-01T08:00:00.000+00:00",
        "valueQuantity": {
          "value": 20,
          "unit": "10*3/u"
        }
      },
      "request": {
        "method": "PUT",
        "url": "Observation/7b2c6370-ce82-4ea6-8ad4-51af64f0609c"
      }
    },
    {
      "fullUrl": "https://madie.cms.gov/MeasureReport/47ce043e-86bf-400a-9c3c-47944522efbd",
      "resource": {
        "resourceType": "MeasureReport",
        "id": "47ce043e-86bf-400a-9c3c-47944522efbd",
        "meta": {
          "profile": [
            "http://hl7.org/fhir/us/cqfmeasures/StructureDefinition/test-case-cqfm"
          ]
        },
        "contained": [
          {
            "resourceType": "Parameters",
            "id": "42d588c9-f5de-4ea9-b845-c0b6577fb428-parameters",
            "parameter": [
              {
                "name": "subject",
                "valueString": "3134a396-b151-4708-9e23-c961c4a73471"
              }
            ]
          }
        ],
        "extension": [
          {
            "url": "http://hl7.org/fhir/us/cqfmeasures/StructureDefinition/cqfm-inputParameters",
            "valueReference": {
              "reference": "#42d588c9-f5de-4ea9-b845-c0b6577fb428-parameters"
            }
          },
          {
            "url": "http://hl7.org/fhir/us/cqfmeasures/StructureDefinition/cqfm-testCaseDescription",
            "valueMarkdown": "Patient with WBC result date/time = delivery date/time \n"
          }
        ],
        "modifierExtension": [
          {
            "url": "http://hl7.org/fhir/us/cqfmeasures/StructureDefinition/cqfm-isTestCase",
            "valueBoolean": true
          }
        ],
        "status": "complete",
        "type": "individual",
        "measure": "https://madie.cms.gov/Measure/SevereObstetricComplicationsFHIR",
        "period": {
          "start": "2024-01-01",
          "end": "2024-12-31"
        },
        "group": [
          {
            "population": [
              {
                "code": {
                  "coding": [
                    {
                      "system": "http://terminology.hl7.org/CodeSystem/measure-population",
                      "code": "initial-population",
                      "display": "Initial Population"
                    }
                  ]
                },
                "count": 1
              },
              {
                "code": {
                  "coding": [
                    {
                      "system": "http://terminology.hl7.org/CodeSystem/measure-population",
                      "code": "denominator",
                      "display": "Denominator"
                    }
                  ]
                },
                "count": 1
              },
              {
                "code": {
                  "coding": [
                    {
                      "system": "http://terminology.hl7.org/CodeSystem/measure-population",
                      "code": "denominator-exclusion",
                      "display": "Denominator Exclusion"
                    }
                  ]
                },
                "count": 0
              },
              {
                "code": {
                  "coding": [
                    {
                      "system": "http://terminology.hl7.org/CodeSystem/measure-population",
                      "code": "numerator",
                      "display": "Numerator"
                    }
                  ]
                },
                "count": 0
              }
            ]
          }
        ],
        "evaluatedResource": [
          {
            "reference": "Patient/3134a396-b151-4708-9e23-c961c4a73471"
          },
          {
            "reference": "Observation/e9ececc0-0ae6-42a1-bf46-5ec7cf760171"
          },
          {
            "reference": "Observation/160a83a1-06fe-4091-ab85-1b7bca8fdeb8"
          },
          {
            "reference": "Encounter/1a7faeda-c163-41d4-baf8-b062d0d9306e"
          },
          {
            "reference": "Encounter/98271605-48fb-4880-96bf-d9200e62a288"
          },
          {
            "reference": "Procedure/7eb8765f-3815-49f2-82f1-94e0341d2dde"
          },
          {
            "reference": "Observation/7b2c6370-ce82-4ea6-8ad4-51af64f0609c"
          }
        ]
      },
      "request": {
        "method": "PUT",
        "url": "MeasureReport/47ce043e-86bf-400a-9c3c-47944522efbd"
      }
    }
  ]
}