{"resourceType":"Bundle","id":"tests-b2272163-9d12-462e-aeb3-259470ae0589-bundle","type":"transaction","entry":[{"fullUrl":"https://madie.cms.gov/Patient/b2272163-9d12-462e-aeb3-259470ae0589","resource":{"resourceType":"Patient","id":"b2272163-9d12-462e-aeb3-259470ae0589","meta":{"profile":["http://hl7.org/fhir/us/qicore/StructureDefinition/qicore-patient"]},"extension":[{"url":"http://hl7.org/fhir/us/core/StructureDefinition/us-core-race","extension":[{"url":"ombCategory","valueCoding":{"system":"urn:oid:2.16.840.1.113883.6.238","code":"2028-9","display":"Asian"}},{"url":"text","valueString":"Asian"}]},{"url":"http://hl7.org/fhir/us/core/StructureDefinition/us-core-ethnicity","extension":[{"url":"ombCategory","valueCoding":{"system":"urn:oid:2.16.840.1.113883.6.238","code":"2135-2","display":"Hispanic or Latino"}},{"url":"text","valueString":"Hispanic or Latino"}]}],"identifier":[{"system":"http://hospital.smarthealthit.org","value":"999999995"}],"name":[{"family":"Bertha","given":["Betty"]}],"gender":"female","birthDate":"2004-01-02"},"request":{"method":"PUT","url":"Patient/b2272163-9d12-462e-aeb3-259470ae0589"}},{"fullUrl":"https://madie.cms.gov/Encounter/d31254d8-5e4d-454d-86d7-76d4b5b87b7a","resource":{"resourceType":"Encounter","id":"d31254d8-5e4d-454d-86d7-76d4b5b87b7a","meta":{"profile":["http://hl7.org/fhir/us/qicore/StructureDefinition/qicore-encounter"]},"status":"finished","class":{"system":"http://terminology.hl7.org/CodeSystem/v3-ActCode","code":"AMB","display":"ambulatory"},"type":[{"coding":[{"system":"http://www.ada.org/cdt","code":"D0120","display":"periodic oral evaluation - established patient"}]}],"subject":{"reference":"Patient/b2272163-9d12-462e-aeb3-259470ae0589"},"period":{"start":"2024-12-31T23:59:59.000Z","end":"2024-12-31T23:59:59.000Z"}},"request":{"method":"PUT","url":"Encounter/d31254d8-5e4d-454d-86d7-76d4b5b87b7a"}},{"fullUrl":"https://madie.cms.gov/MeasureReport/def31b37-a151-498a-b0b5-d2356a17900e","resource":{"resourceType":"MeasureReport","id":"def31b37-a151-498a-b0b5-d2356a17900e","meta":{"profile":["http://hl7.org/fhir/us/cqfmeasures/StructureDefinition/test-case-cqfm"]},"contained":[{"resourceType":"Parameters","id":"1c98db96-bf4f-4239-bed1-b7aef4201a1a-parameters","parameter":[{"name":"subject","valueString":"b2272163-9d12-462e-aeb3-259470ae0589"}]}],"extension":[{"url":"http://hl7.org/fhir/us/cqfmeasures/StructureDefinition/cqfm-inputParameters","valueReference":{"reference":"#1c98db96-bf4f-4239-bed1-b7aef4201a1a-parameters"}},{"url":"http://hl7.org/fhir/us/cqfmeasures/StructureDefinition/cqfm-testCaseDescription","valueMarkdown":"Patient 20yo w/ an Oral Evaluation Encounter 12/31 before the Measurement Period."}],"modifierExtension":[{"url":"http://hl7.org/fhir/us/cqfmeasures/StructureDefinition/cqfm-isTestCase","valueBoolean":true}],"status":"complete","type":"individual","measure":"https://madie.cms.gov/Measure/PrimaryCariesPreventionasOfferedbyDentistsFHIR","period":{"start":"2025-01-01","end":"2025-12-31"},"group":[{"population":[{"code":{"coding":[{"system":"http://terminology.hl7.org/CodeSystem/measure-population","code":"initial-population","display":"Initial Population"}]},"count":0},{"code":{"coding":[{"system":"http://terminology.hl7.org/CodeSystem/measure-population","code":"denominator","display":"Denominator"}]},"count":0},{"code":{"coding":[{"system":"http://terminology.hl7.org/CodeSystem/measure-population","code":"denominator-exclusion","display":"Denominator Exclusion"}]},"count":0},{"code":{"coding":[{"system":"http://terminology.hl7.org/CodeSystem/measure-population","code":"numerator","display":"Numerator"}]},"count":0}]}],"evaluatedResource":[{"reference":"Patient/b2272163-9d12-462e-aeb3-259470ae0589"},{"reference":"Encounter/d31254d8-5e4d-454d-86d7-76d4b5b87b7a"}]},"request":{"method":"PUT","url":"MeasureReport/def31b37-a151-498a-b0b5-d2356a17900e"}}]}