{"resourceType":"Bundle","id":"tests-cf6122d7-7db5-4f7e-980d-79d870b95ca5-bundle","type":"transaction","entry":[{"fullUrl":"https://madie.cms.gov/Patient/cf6122d7-7db5-4f7e-980d-79d870b95ca5","resource":{"resourceType":"Patient","id":"cf6122d7-7db5-4f7e-980d-79d870b95ca5","meta":{"profile":["http://hl7.org/fhir/us/qicore/StructureDefinition/qicore-patient"]},"extension":[{"url":"http://hl7.org/fhir/us/core/StructureDefinition/us-core-race","extension":[{"url":"ombCategory","valueCoding":{"system":"urn:oid:2.16.840.1.113883.6.238","code":"2028-9","display":"Asian"}},{"url":"text","valueString":"Asian"}]},{"url":"http://hl7.org/fhir/us/core/StructureDefinition/us-core-ethnicity","extension":[{"url":"ombCategory","valueCoding":{"system":"urn:oid:2.16.840.1.113883.6.238","code":"2135-2","display":"Hispanic or Latino"}},{"url":"text","valueString":"Hispanic or Latino"}]}],"identifier":[{"system":"http://hospital.smarthealthit.org","value":"999999995"}],"name":[{"family":"Bertha","given":["Betty"]}],"gender":"female","birthDate":"2005-01-01"},"request":{"method":"PUT","url":"Patient/cf6122d7-7db5-4f7e-980d-79d870b95ca5"}},{"fullUrl":"https://madie.cms.gov/Encounter/884b75aa-6f5d-4323-a1ae-524cb7d74946","resource":{"resourceType":"Encounter","id":"884b75aa-6f5d-4323-a1ae-524cb7d74946","meta":{"profile":["http://hl7.org/fhir/us/qicore/StructureDefinition/qicore-encounter"]},"status":"finished","class":{"system":"http://terminology.hl7.org/CodeSystem/v3-ActCode","code":"AMB","display":"ambulatory"},"type":[{"coding":[{"system":"http://www.ada.org/cdt","code":"D0120","display":"periodic oral evaluation - established patient"}]}],"subject":{"reference":"Patient/cf6122d7-7db5-4f7e-980d-79d870b95ca5"},"period":{"start":"2025-01-01T00:00:00.000Z","end":"2025-01-01T01:15:00.000Z"}},"request":{"method":"PUT","url":"Encounter/884b75aa-6f5d-4323-a1ae-524cb7d74946"}},{"fullUrl":"https://madie.cms.gov/Procedure/10bb33fe-3601-4496-bd26-f0a5ffcb102f","resource":{"resourceType":"Procedure","id":"10bb33fe-3601-4496-bd26-f0a5ffcb102f","meta":{"profile":["http://hl7.org/fhir/us/qicore/StructureDefinition/qicore-procedure"]},"extension":[{"url":"http://hl7.org/fhir/us/qicore/StructureDefinition/qicore-recorded","valueDateTime":"2024-12-31T23:00:00.000Z"}],"status":"completed","code":{"coding":[{"system":"http://snomed.info/sct","code":"385763009","display":"Hospice care (regime/therapy)"}]},"subject":{"reference":"Patient/cf6122d7-7db5-4f7e-980d-79d870b95ca5"},"performedPeriod":{"start":"2024-12-31T00:00:00.000Z","end":"2025-01-01T00:00:00.000Z"}},"request":{"method":"PUT","url":"Procedure/10bb33fe-3601-4496-bd26-f0a5ffcb102f"}},{"fullUrl":"https://madie.cms.gov/MeasureReport/1c683e28-0a3d-4ac2-af2f-cd0d29bcf9f7","resource":{"resourceType":"MeasureReport","id":"1c683e28-0a3d-4ac2-af2f-cd0d29bcf9f7","meta":{"profile":["http://hl7.org/fhir/us/cqfmeasures/StructureDefinition/test-case-cqfm"]},"contained":[{"resourceType":"Parameters","id":"ae59ae44-2ec5-47b9-a257-0dd8eba27c9a-parameters","parameter":[{"name":"subject","valueString":"cf6122d7-7db5-4f7e-980d-79d870b95ca5"}]}],"extension":[{"url":"http://hl7.org/fhir/us/cqfmeasures/StructureDefinition/cqfm-inputParameters","valueReference":{"reference":"#ae59ae44-2ec5-47b9-a257-0dd8eba27c9a-parameters"}},{"url":"http://hl7.org/fhir/us/cqfmeasures/StructureDefinition/cqfm-testCaseDescription","valueMarkdown":"Hospice Procedure - For meeting 100% coverage"}],"modifierExtension":[{"url":"http://hl7.org/fhir/us/cqfmeasures/StructureDefinition/cqfm-isTestCase","valueBoolean":true}],"status":"complete","type":"individual","measure":"https://madie.cms.gov/Measure/PrimaryCariesPreventionasOfferedbyDentistsFHIR","period":{"start":"2025-01-01","end":"2025-12-31"},"group":[{"population":[{"code":{"coding":[{"system":"http://terminology.hl7.org/CodeSystem/measure-population","code":"initial-population","display":"Initial Population"}]},"count":1},{"code":{"coding":[{"system":"http://terminology.hl7.org/CodeSystem/measure-population","code":"denominator","display":"Denominator"}]},"count":1},{"code":{"coding":[{"system":"http://terminology.hl7.org/CodeSystem/measure-population","code":"denominator-exclusion","display":"Denominator Exclusion"}]},"count":1},{"code":{"coding":[{"system":"http://terminology.hl7.org/CodeSystem/measure-population","code":"numerator","display":"Numerator"}]},"count":0}]}],"evaluatedResource":[{"reference":"Patient/cf6122d7-7db5-4f7e-980d-79d870b95ca5"},{"reference":"Encounter/884b75aa-6f5d-4323-a1ae-524cb7d74946"},{"reference":"Procedure/10bb33fe-3601-4496-bd26-f0a5ffcb102f"}]},"request":{"method":"PUT","url":"MeasureReport/1c683e28-0a3d-4ac2-af2f-cd0d29bcf9f7"}}]}