{"resourceType":"Bundle","id":"tests-6d5729b5-4d15-438a-b017-82757cc87bac-bundle","type":"transaction","entry":[{"fullUrl":"https://madie.cms.gov/Patient/6d5729b5-4d15-438a-b017-82757cc87bac","resource":{"resourceType":"Patient","id":"6d5729b5-4d15-438a-b017-82757cc87bac","meta":{"profile":["http://hl7.org/fhir/us/qicore/StructureDefinition/qicore-patient"]},"extension":[{"url":"http://hl7.org/fhir/us/core/StructureDefinition/us-core-race","extension":[{"url":"ombCategory","valueCoding":{"system":"urn:oid:2.16.840.1.113883.6.238","code":"2028-9","display":"Asian"}},{"url":"text","valueString":"Asian"}]},{"url":"http://hl7.org/fhir/us/core/StructureDefinition/us-core-ethnicity","extension":[{"url":"ombCategory","valueCoding":{"system":"urn:oid:2.16.840.1.113883.6.238","code":"2135-2","display":"Hispanic or Latino"}},{"url":"text","valueString":"Hispanic or Latino"}]}],"identifier":[{"system":"http://hospital.smarthealthit.org","value":"999999995"}],"name":[{"family":"Bertha","given":["Betty"]}],"gender":"female","birthDate":"2019-01-01"},"request":{"method":"PUT","url":"Patient/6d5729b5-4d15-438a-b017-82757cc87bac"}},{"fullUrl":"https://madie.cms.gov/Encounter/6183754b-c0fc-4df7-a2c2-74b73bdd49d4","resource":{"resourceType":"Encounter","id":"6183754b-c0fc-4df7-a2c2-74b73bdd49d4","meta":{"profile":["http://hl7.org/fhir/us/qicore/StructureDefinition/qicore-encounter"]},"status":"finished","class":{"system":"http://terminology.hl7.org/CodeSystem/v3-ActCode","code":"AMB","display":"ambulatory"},"type":[{"coding":[{"system":"http://www.ada.org/cdt","code":"D0120","display":"periodic oral evaluation - established patient"}]}],"subject":{"reference":"Patient/6d5729b5-4d15-438a-b017-82757cc87bac"},"period":{"start":"2025-01-01T00:00:00.000Z","end":"2025-01-01T01:15:00.000Z"}},"request":{"method":"PUT","url":"Encounter/6183754b-c0fc-4df7-a2c2-74b73bdd49d4"}},{"fullUrl":"https://madie.cms.gov/MeasureReport/d3046a50-cc07-4a52-94ae-d8dc0af82abe","resource":{"resourceType":"MeasureReport","id":"d3046a50-cc07-4a52-94ae-d8dc0af82abe","meta":{"profile":["http://hl7.org/fhir/us/cqfmeasures/StructureDefinition/test-case-cqfm"]},"contained":[{"resourceType":"Parameters","id":"98b0c31a-aeeb-4223-a9e0-1cbc30b6afba-parameters","parameter":[{"name":"subject","valueString":"6d5729b5-4d15-438a-b017-82757cc87bac"}]}],"extension":[{"url":"http://hl7.org/fhir/us/cqfmeasures/StructureDefinition/cqfm-inputParameters","valueReference":{"reference":"#98b0c31a-aeeb-4223-a9e0-1cbc30b6afba-parameters"}},{"url":"http://hl7.org/fhir/us/cqfmeasures/StructureDefinition/cqfm-testCaseDescription","valueMarkdown":"Patient 6yo w/ an Oral Evaluation Encounter 1/1 of the Measurement Period."}],"modifierExtension":[{"url":"http://hl7.org/fhir/us/cqfmeasures/StructureDefinition/cqfm-isTestCase","valueBoolean":true}],"status":"complete","type":"individual","measure":"https://madie.cms.gov/Measure/PrimaryCariesPreventionasOfferedbyDentistsFHIR","period":{"start":"2025-01-01","end":"2025-12-31"},"group":[{"population":[{"code":{"coding":[{"system":"http://terminology.hl7.org/CodeSystem/measure-population","code":"initial-population","display":"Initial Population"}]},"count":1},{"code":{"coding":[{"system":"http://terminology.hl7.org/CodeSystem/measure-population","code":"denominator","display":"Denominator"}]},"count":1},{"code":{"coding":[{"system":"http://terminology.hl7.org/CodeSystem/measure-population","code":"denominator-exclusion","display":"Denominator Exclusion"}]},"count":0},{"code":{"coding":[{"system":"http://terminology.hl7.org/CodeSystem/measure-population","code":"numerator","display":"Numerator"}]},"count":0}]}],"evaluatedResource":[{"reference":"Patient/6d5729b5-4d15-438a-b017-82757cc87bac"},{"reference":"Encounter/6183754b-c0fc-4df7-a2c2-74b73bdd49d4"}]},"request":{"method":"PUT","url":"MeasureReport/d3046a50-cc07-4a52-94ae-d8dc0af82abe"}}]}