{"resourceType":"Bundle","id":"tests-c774efc2-4438-412b-810e-f505bb83945f-bundle","type":"transaction","entry":[{"fullUrl":"https://madie.cms.gov/Patient/c774efc2-4438-412b-810e-f505bb83945f","resource":{"resourceType":"Patient","id":"c774efc2-4438-412b-810e-f505bb83945f","meta":{"profile":["http://hl7.org/fhir/us/qicore/StructureDefinition/qicore-patient"]},"extension":[{"url":"http://hl7.org/fhir/us/core/StructureDefinition/us-core-race","extension":[{"url":"ombCategory","valueCoding":{"system":"urn:oid:2.16.840.1.113883.6.238","code":"2028-9","display":"Asian"}},{"url":"text","valueString":"Asian"}]},{"url":"http://hl7.org/fhir/us/core/StructureDefinition/us-core-ethnicity","extension":[{"url":"ombCategory","valueCoding":{"system":"urn:oid:2.16.840.1.113883.6.238","code":"2135-2","display":"Hispanic or Latino"}},{"url":"text","valueString":"Hispanic or Latino"}]}],"identifier":[{"system":"http://hospital.smarthealthit.org","value":"999999995"}],"name":[{"family":"Bertha","given":["Betty"]}],"gender":"female","birthDate":"2005-01-01"},"request":{"method":"PUT","url":"Patient/c774efc2-4438-412b-810e-f505bb83945f"}},{"fullUrl":"https://madie.cms.gov/Encounter/9a5aa906-8de4-425b-affe-2e378f49cf9a","resource":{"resourceType":"Encounter","id":"9a5aa906-8de4-425b-affe-2e378f49cf9a","meta":{"profile":["http://hl7.org/fhir/us/qicore/StructureDefinition/qicore-encounter"]},"status":"finished","class":{"system":"http://terminology.hl7.org/CodeSystem/v3-ActCode","code":"AMB","display":"ambulatory"},"type":[{"coding":[{"system":"http://www.ada.org/cdt","code":"D0120","display":"periodic oral evaluation - established patient"}]}],"subject":{"reference":"Patient/c774efc2-4438-412b-810e-f505bb83945f"},"period":{"start":"2025-01-01T00:00:00.000Z","end":"2025-01-01T01:15:00.000Z"}},"request":{"method":"PUT","url":"Encounter/9a5aa906-8de4-425b-affe-2e378f49cf9a"}},{"fullUrl":"https://madie.cms.gov/Procedure/3f748a3a-2c79-4047-bc2f-74d2c521a9cf","resource":{"resourceType":"Procedure","id":"3f748a3a-2c79-4047-bc2f-74d2c521a9cf","meta":{"profile":["http://hl7.org/fhir/us/qicore/StructureDefinition/qicore-procedure"]},"extension":[{"url":"http://hl7.org/fhir/us/qicore/StructureDefinition/qicore-recorded","valueDateTime":"2026-01-01T00:00:00.000Z"}],"status":"completed","code":{"coding":[{"system":"http://snomed.info/sct","code":"313042009","display":"Application of dental fluoride varnish (procedure)"}]},"subject":{"reference":"Patient/c774efc2-4438-412b-810e-f505bb83945f"},"performedPeriod":{"start":"2026-01-01T00:00:00.000Z","end":"2026-01-01T01:00:00.000Z"}},"request":{"method":"PUT","url":"Procedure/3f748a3a-2c79-4047-bc2f-74d2c521a9cf"}},{"fullUrl":"https://madie.cms.gov/Procedure/3f748a3a-2c79-4047-bc2f-74d2c521a9cf.1","resource":{"resourceType":"Procedure","id":"3f748a3a-2c79-4047-bc2f-74d2c521a9cf.1","meta":{"profile":["http://hl7.org/fhir/us/qicore/StructureDefinition/qicore-procedure"]},"extension":[{"url":"http://hl7.org/fhir/us/qicore/StructureDefinition/qicore-recorded","valueDateTime":"2026-01-01T01:00:00.000Z"}],"status":"completed","code":{"coding":[{"system":"http://snomed.info/sct","code":"313042009","display":"Application of dental fluoride varnish (procedure)"}]},"subject":{"reference":"Patient/c774efc2-4438-412b-810e-f505bb83945f"},"performedPeriod":{"start":"2026-01-01T00:00:00.000Z","end":"2026-01-01T00:00:00.000Z"}},"request":{"method":"PUT","url":"Procedure/3f748a3a-2c79-4047-bc2f-74d2c521a9cf.1"}},{"fullUrl":"https://madie.cms.gov/MeasureReport/20d9e422-4a34-42e6-906c-09511e9d3270","resource":{"resourceType":"MeasureReport","id":"20d9e422-4a34-42e6-906c-09511e9d3270","meta":{"profile":["http://hl7.org/fhir/us/cqfmeasures/StructureDefinition/test-case-cqfm"]},"contained":[{"resourceType":"Parameters","id":"e30acb66-37a5-4a70-b9a3-b0beaa0a93cd-parameters","parameter":[{"name":"subject","valueString":"c774efc2-4438-412b-810e-f505bb83945f"}]}],"extension":[{"url":"http://hl7.org/fhir/us/cqfmeasures/StructureDefinition/cqfm-inputParameters","valueReference":{"reference":"#e30acb66-37a5-4a70-b9a3-b0beaa0a93cd-parameters"}},{"url":"http://hl7.org/fhir/us/cqfmeasures/StructureDefinition/cqfm-testCaseDescription","valueMarkdown":"Patient 20yo w/ an Oral Evaluation Encounter 1/1 of the MP & 2 Flouride Application Procedures that end on 1/1 after the MP."}],"modifierExtension":[{"url":"http://hl7.org/fhir/us/cqfmeasures/StructureDefinition/cqfm-isTestCase","valueBoolean":true}],"status":"complete","type":"individual","measure":"https://madie.cms.gov/Measure/PrimaryCariesPreventionasOfferedbyDentistsFHIR","period":{"start":"2025-01-01","end":"2025-12-31"},"group":[{"population":[{"code":{"coding":[{"system":"http://terminology.hl7.org/CodeSystem/measure-population","code":"initial-population","display":"Initial Population"}]},"count":1},{"code":{"coding":[{"system":"http://terminology.hl7.org/CodeSystem/measure-population","code":"denominator","display":"Denominator"}]},"count":1},{"code":{"coding":[{"system":"http://terminology.hl7.org/CodeSystem/measure-population","code":"denominator-exclusion","display":"Denominator Exclusion"}]},"count":0},{"code":{"coding":[{"system":"http://terminology.hl7.org/CodeSystem/measure-population","code":"numerator","display":"Numerator"}]},"count":0}]}],"evaluatedResource":[{"reference":"Patient/c774efc2-4438-412b-810e-f505bb83945f"},{"reference":"Encounter/9a5aa906-8de4-425b-affe-2e378f49cf9a"},{"reference":"Procedure/3f748a3a-2c79-4047-bc2f-74d2c521a9cf"},{"reference":"Procedure/3f748a3a-2c79-4047-bc2f-74d2c521a9cf.1"}]},"request":{"method":"PUT","url":"MeasureReport/20d9e422-4a34-42e6-906c-09511e9d3270"}}]}