{"resourceType":"Bundle","id":"tests-fd01c404-7bd5-4050-90e9-e804d81c5746-bundle","type":"transaction","entry":[{"fullUrl":"https://madie.cms.gov/Patient/fd01c404-7bd5-4050-90e9-e804d81c5746","resource":{"resourceType":"Patient","id":"fd01c404-7bd5-4050-90e9-e804d81c5746","meta":{"profile":["http://hl7.org/fhir/us/qicore/StructureDefinition/qicore-patient"]},"extension":[{"url":"http://hl7.org/fhir/us/core/StructureDefinition/us-core-race","extension":[{"url":"ombCategory","valueCoding":{"system":"urn:oid:2.16.840.1.113883.6.238","code":"2028-9","display":"Asian"}},{"url":"text","valueString":"Asian"}]},{"url":"http://hl7.org/fhir/us/core/StructureDefinition/us-core-ethnicity","extension":[{"url":"ombCategory","valueCoding":{"system":"urn:oid:2.16.840.1.113883.6.238","code":"2135-2","display":"Hispanic or Latino"}},{"url":"text","valueString":"Hispanic or Latino"}]}],"identifier":[{"system":"http://hospital.smarthealthit.org","value":"999999995"}],"name":[{"family":"Bertha","given":["Betty"]}],"gender":"female","birthDate":"2005-01-01"},"request":{"method":"PUT","url":"Patient/fd01c404-7bd5-4050-90e9-e804d81c5746"}},{"fullUrl":"https://madie.cms.gov/Encounter/d9e1fba6-3291-4e75-ada1-cd837f102405","resource":{"resourceType":"Encounter","id":"d9e1fba6-3291-4e75-ada1-cd837f102405","meta":{"profile":["http://hl7.org/fhir/us/qicore/StructureDefinition/qicore-encounter"]},"status":"finished","class":{"system":"http://terminology.hl7.org/CodeSystem/v3-ActCode","code":"AMB","display":"ambulatory"},"type":[{"coding":[{"system":"http://www.ada.org/cdt","code":"D0120","display":"periodic oral evaluation - established patient"}]}],"subject":{"reference":"Patient/fd01c404-7bd5-4050-90e9-e804d81c5746"},"period":{"start":"2025-01-01T00:00:00.000Z","end":"2025-01-01T01:15:00.000Z"}},"request":{"method":"PUT","url":"Encounter/d9e1fba6-3291-4e75-ada1-cd837f102405"}},{"fullUrl":"https://madie.cms.gov/Encounter/d9e1fba6-3291-4e75-ada1-cd837f102405.1","resource":{"resourceType":"Encounter","id":"d9e1fba6-3291-4e75-ada1-cd837f102405.1","meta":{"profile":["http://hl7.org/fhir/us/qicore/StructureDefinition/qicore-encounter"]},"status":"finished","class":{"system":"http://terminology.hl7.org/CodeSystem/v3-ActCode","code":"AMB","display":"ambulatory"},"type":[{"coding":[{"system":"http://snomed.info/sct","code":"183452005","display":"Emergency hospital admission (procedure)"}]}],"subject":{"reference":"Patient/fd01c404-7bd5-4050-90e9-e804d81c5746"},"period":{"start":"2025-01-01T00:00:00.000Z","end":"2025-01-01T01:00:00.000Z"},"hospitalization":{"dischargeDisposition":{"coding":[{"system":"http://snomed.info/sct","code":"428371000124100","display":"Discharge to healthcare facility for hospice care (procedure)"}]}}},"request":{"method":"PUT","url":"Encounter/d9e1fba6-3291-4e75-ada1-cd837f102405.1"}},{"fullUrl":"https://madie.cms.gov/MeasureReport/d3a45ced-019b-4dfd-b1da-2712faf445bf","resource":{"resourceType":"MeasureReport","id":"d3a45ced-019b-4dfd-b1da-2712faf445bf","meta":{"profile":["http://hl7.org/fhir/us/cqfmeasures/StructureDefinition/test-case-cqfm"]},"contained":[{"resourceType":"Parameters","id":"8317520a-c33f-4d6a-84bd-d4509ea13e84-parameters","parameter":[{"name":"subject","valueString":"fd01c404-7bd5-4050-90e9-e804d81c5746"}]}],"extension":[{"url":"http://hl7.org/fhir/us/cqfmeasures/StructureDefinition/cqfm-inputParameters","valueReference":{"reference":"#8317520a-c33f-4d6a-84bd-d4509ea13e84-parameters"}},{"url":"http://hl7.org/fhir/us/cqfmeasures/StructureDefinition/cqfm-testCaseDescription","valueMarkdown":"Patient 20yo w/ an Oral Evaluation Encounter 1/1 of the MP & Hospice Encounter that ends on 1/1 during the MP."}],"modifierExtension":[{"url":"http://hl7.org/fhir/us/cqfmeasures/StructureDefinition/cqfm-isTestCase","valueBoolean":true}],"status":"complete","type":"individual","measure":"https://madie.cms.gov/Measure/PrimaryCariesPreventionasOfferedbyDentistsFHIR","period":{"start":"2025-01-01","end":"2025-12-31"},"group":[{"population":[{"code":{"coding":[{"system":"http://terminology.hl7.org/CodeSystem/measure-population","code":"initial-population","display":"Initial Population"}]},"count":1},{"code":{"coding":[{"system":"http://terminology.hl7.org/CodeSystem/measure-population","code":"denominator","display":"Denominator"}]},"count":1},{"code":{"coding":[{"system":"http://terminology.hl7.org/CodeSystem/measure-population","code":"denominator-exclusion","display":"Denominator Exclusion"}]},"count":1},{"code":{"coding":[{"system":"http://terminology.hl7.org/CodeSystem/measure-population","code":"numerator","display":"Numerator"}]},"count":0}]}],"evaluatedResource":[{"reference":"Patient/fd01c404-7bd5-4050-90e9-e804d81c5746"},{"reference":"Encounter/d9e1fba6-3291-4e75-ada1-cd837f102405"},{"reference":"Encounter/d9e1fba6-3291-4e75-ada1-cd837f102405.1"}]},"request":{"method":"PUT","url":"MeasureReport/d3a45ced-019b-4dfd-b1da-2712faf445bf"}}]}