{"resourceType":"Bundle","id":"tests-adbdfb62-0d51-4e57-809d-854037b8e433-bundle","type":"transaction","entry":[{"fullUrl":"https://madie.cms.gov/Patient/adbdfb62-0d51-4e57-809d-854037b8e433","resource":{"resourceType":"Patient","id":"adbdfb62-0d51-4e57-809d-854037b8e433","meta":{"profile":["http://hl7.org/fhir/us/qicore/StructureDefinition/qicore-patient"]},"extension":[{"url":"http://hl7.org/fhir/us/core/StructureDefinition/us-core-race","extension":[{"url":"ombCategory","valueCoding":{"system":"urn:oid:2.16.840.1.113883.6.238","code":"2028-9","display":"Asian"}},{"url":"text","valueString":"Asian"}]},{"url":"http://hl7.org/fhir/us/core/StructureDefinition/us-core-ethnicity","extension":[{"url":"ombCategory","valueCoding":{"system":"urn:oid:2.16.840.1.113883.6.238","code":"2135-2","display":"Hispanic or Latino"}},{"url":"text","valueString":"Hispanic or Latino"}]}],"identifier":[{"system":"http://hospital.smarthealthit.org","value":"999999995"}],"name":[{"family":"Bertha","given":["Betty"]}],"gender":"female","birthDate":"2005-01-01"},"request":{"method":"PUT","url":"Patient/adbdfb62-0d51-4e57-809d-854037b8e433"}},{"fullUrl":"https://madie.cms.gov/Encounter/d22ad35d-4f97-48c6-a039-e3c7879a6d04","resource":{"resourceType":"Encounter","id":"d22ad35d-4f97-48c6-a039-e3c7879a6d04","meta":{"profile":["http://hl7.org/fhir/us/qicore/StructureDefinition/qicore-encounter"]},"status":"finished","class":{"system":"http://terminology.hl7.org/CodeSystem/v3-ActCode","code":"AMB","display":"ambulatory"},"type":[{"coding":[{"system":"http://www.ada.org/cdt","code":"D0120","display":"periodic oral evaluation - established patient"}]}],"subject":{"reference":"Patient/adbdfb62-0d51-4e57-809d-854037b8e433"},"period":{"start":"2026-01-01T00:00:00.000Z","end":"2026-01-01T01:15:00.000Z"}},"request":{"method":"PUT","url":"Encounter/d22ad35d-4f97-48c6-a039-e3c7879a6d04"}},{"fullUrl":"https://madie.cms.gov/MeasureReport/c9aa0b89-9092-4f34-b1bd-52cf2b87868c","resource":{"resourceType":"MeasureReport","id":"c9aa0b89-9092-4f34-b1bd-52cf2b87868c","meta":{"profile":["http://hl7.org/fhir/us/cqfmeasures/StructureDefinition/test-case-cqfm"]},"contained":[{"resourceType":"Parameters","id":"b8c83d80-9e05-4962-af14-ab06a032749f-parameters","parameter":[{"name":"subject","valueString":"adbdfb62-0d51-4e57-809d-854037b8e433"}]}],"extension":[{"url":"http://hl7.org/fhir/us/cqfmeasures/StructureDefinition/cqfm-inputParameters","valueReference":{"reference":"#b8c83d80-9e05-4962-af14-ab06a032749f-parameters"}},{"url":"http://hl7.org/fhir/us/cqfmeasures/StructureDefinition/cqfm-testCaseDescription","valueMarkdown":"Patient 20yo w/ an Oral Evaluation Encounter 1/1 after the Measurement Period."}],"modifierExtension":[{"url":"http://hl7.org/fhir/us/cqfmeasures/StructureDefinition/cqfm-isTestCase","valueBoolean":true}],"status":"complete","type":"individual","measure":"https://madie.cms.gov/Measure/PrimaryCariesPreventionasOfferedbyDentistsFHIR","period":{"start":"2025-01-01","end":"2025-12-31"},"group":[{"population":[{"code":{"coding":[{"system":"http://terminology.hl7.org/CodeSystem/measure-population","code":"initial-population","display":"Initial Population"}]},"count":0},{"code":{"coding":[{"system":"http://terminology.hl7.org/CodeSystem/measure-population","code":"denominator","display":"Denominator"}]},"count":0},{"code":{"coding":[{"system":"http://terminology.hl7.org/CodeSystem/measure-population","code":"denominator-exclusion","display":"Denominator Exclusion"}]},"count":0},{"code":{"coding":[{"system":"http://terminology.hl7.org/CodeSystem/measure-population","code":"numerator","display":"Numerator"}]},"count":0}]}],"evaluatedResource":[{"reference":"Patient/adbdfb62-0d51-4e57-809d-854037b8e433"},{"reference":"Encounter/d22ad35d-4f97-48c6-a039-e3c7879a6d04"}]},"request":{"method":"PUT","url":"MeasureReport/c9aa0b89-9092-4f34-b1bd-52cf2b87868c"}}]}