{
  "resourceType": "Bundle",
  "id": "6129132c02c62a011f2e628f",
  "type": "transaction",
  "entry": [
    {
      "fullUrl": "https://madie.cms.gov/Patient/312e8ada-4ca0-4efc-92f8-1cc0331eb141",
      "resource": {
        "resourceType": "Patient",
        "id": "312e8ada-4ca0-4efc-92f8-1cc0331eb141",
        "meta": {
          "profile": [
            "http://hl7.org/fhir/us/qicore/StructureDefinition/qicore-patient"
          ]
        },
        "text": {
          "status": "generated",
          "div": "<div xmlns=\"http://www.w3.org/1999/xhtml\"><div class=\"hapiHeaderText\">CMOdurEncTM_EDEndTM=ObsTM_ObsEndTM=EncTM <b>DENEXPASS </b></div><table class=\"hapiPropertyTable\"><tbody><tr><td>Identifier</td><td>adf247755348532f73cb3b0d90981ec3</td></tr><tr><td>Date of birth</td><td><span>21 August 1994</span></td></tr></tbody></table></div>"
        },
        "extension": [
          {
            "url": "http://hl7.org/fhir/us/core/StructureDefinition/us-core-race",
            "extension": [
              {
                "url": "ombCategory",
                "valueCoding": {
                  "system": "urn:oid:2.16.840.1.113883.6.238",
                  "code": "1002-5",
                  "display": "American Indian or Alaska Native",
                  "userSelected": true
                }
              },
              {
                "url": "text",
                "valueString": "American Indian or Alaska Native"
              }
            ]
          },
          {
            "url": "http://hl7.org/fhir/us/core/StructureDefinition/us-core-ethnicity",
            "extension": [
              {
                "url": "ombCategory",
                "valueCoding": {
                  "system": "urn:oid:2.16.840.1.113883.6.238",
                  "code": "2135-2",
                  "display": "Hispanic or Latino",
                  "userSelected": true
                }
              },
              {
                "url": "text",
                "valueString": "Hispanic or Latino"
              }
            ]
          }
        ],
        "identifier": [
          {
            "type": {
              "coding": [
                {
                  "system": "http://terminology.hl7.org/CodeSystem/v2-0203",
                  "code": "MR"
                }
              ]
            },
            "system": "https://bonnie-fhir.healthit.gov/",
            "value": "6129132c02c62a011f2e628f"
          }
        ],
        "active": true,
        "name": [
          {
            "use": "usual",
            "family": "DENEXPass",
            "given": [
              "CMOdurEncTM_EDEndTM=ObsTM_ObsEndTM=EncTM"
            ]
          }
        ],
        "gender": "male",
        "birthDate": "1994-08-21"
      },
      "request": {
        "method": "PUT",
        "url": "Patient/312e8ada-4ca0-4efc-92f8-1cc0331eb141"
      }
    },
    {
      "fullUrl": "https://madie.cms.gov/Encounter/f7dd845e-6771-44d1-9702-412e02788713",
      "resource": {
        "resourceType": "Encounter",
        "id": "f7dd845e-6771-44d1-9702-412e02788713",
        "meta": {
          "profile": [
            "http://hl7.org/fhir/us/qicore/StructureDefinition/qicore-encounter"
          ]
        },
        "status": "finished",
        "class": {
          "system": "http://terminology.hl7.org/CodeSystem/v3-ActCode",
          "code": "EMER",
          "display": "emergency",
          "userSelected": true
        },
        "type": [
          {
            "coding": [
              {
                "system": "http://snomed.info/sct",
                "code": "4525004"
              }
            ]
          }
        ],
        "subject": {
          "reference": "Patient/312e8ada-4ca0-4efc-92f8-1cc0331eb141"
        },
        "period": {
          "start": "2025-10-10T08:30:00.000+00:00",
          "end": "2025-10-10T09:30:00.000+00:00"
        },
        "length": {
          "value": 0,
          "unit": "days"
        }
      },
      "request": {
        "method": "PUT",
        "url": "Encounter/f7dd845e-6771-44d1-9702-412e02788713"
      }
    },
    {
      "fullUrl": "https://madie.cms.gov/Encounter/dffe3cef-baa5-4560-ab50-f03e9300cd05",
      "resource": {
        "resourceType": "Encounter",
        "id": "dffe3cef-baa5-4560-ab50-f03e9300cd05",
        "meta": {
          "profile": [
            "http://hl7.org/fhir/us/qicore/StructureDefinition/qicore-encounter"
          ]
        },
        "status": "finished",
        "class": {
          "system": "http://terminology.hl7.org/CodeSystem/v3-ActCode",
          "code": "OBSENC",
          "display": "observation encounter",
          "userSelected": true
        },
        "type": [
          {
            "coding": [
              {
                "system": "http://snomed.info/sct",
                "code": "448851000124103"
              }
            ]
          }
        ],
        "subject": {
          "reference": "Patient/312e8ada-4ca0-4efc-92f8-1cc0331eb141"
        },
        "period": {
          "start": "2025-10-10T09:30:00.000+00:00",
          "end": "2025-10-10T09:35:00.000+00:00"
        },
        "length": {
          "value": 0,
          "unit": "days"
        }
      },
      "request": {
        "method": "PUT",
        "url": "Encounter/dffe3cef-baa5-4560-ab50-f03e9300cd05"
      }
    },
    {
      "fullUrl": "https://madie.cms.gov/Encounter/28260696-3385-49c9-a57c-99cc3cbf11e2",
      "resource": {
        "resourceType": "Encounter",
        "id": "28260696-3385-49c9-a57c-99cc3cbf11e2",
        "meta": {
          "profile": [
            "http://hl7.org/fhir/us/qicore/StructureDefinition/qicore-encounter"
          ]
        },
        "status": "finished",
        "class": {
          "system": "http://terminology.hl7.org/CodeSystem/v3-ActCode",
          "code": "IMP",
          "display": "inpatient encounter",
          "userSelected": true
        },
        "type": [
          {
            "coding": [
              {
                "system": "http://snomed.info/sct",
                "code": "32485007"
              }
            ]
          }
        ],
        "subject": {
          "reference": "Patient/312e8ada-4ca0-4efc-92f8-1cc0331eb141"
        },
        "period": {
          "start": "2025-10-10T09:35:00.000+00:00",
          "end": "2025-10-12T10:30:00.000+00:00"
        },
        "length": {
          "value": 2,
          "unit": "days"
        },
        "diagnosis": [
          {
            "condition": {
              "reference": "Condition/dbeb3b4a-7c70-4462-b8b7-8a486d20b7f4"
            },
            "use": {
              "coding": [
                {
                  "system": "http://terminology.hl7.org/CodeSystem/diagnosis-role",
                  "code": "billing",
                  "display": "Billing"
                }
              ]
            },
            "rank": 1
          }
        ]
      },
      "request": {
        "method": "PUT",
        "url": "Encounter/28260696-3385-49c9-a57c-99cc3cbf11e2"
      }
    },
    {
      "fullUrl": "https://madie.cms.gov/ServiceRequest/c91524bd-8ce3-451a-a03e-9b55c651d14d",
      "resource": {
        "resourceType": "ServiceRequest",
        "id": "c91524bd-8ce3-451a-a03e-9b55c651d14d",
        "meta": {
          "profile": [
            "http://hl7.org/fhir/us/qicore/StructureDefinition/qicore-servicerequest"
          ]
        },
        "status": "active",
        "intent": "order",
        "code": {
          "coding": [
            {
              "system": "http://snomed.info/sct",
              "code": "133918004"
            }
          ]
        },
        "subject": {
          "reference": "Patient/312e8ada-4ca0-4efc-92f8-1cc0331eb141"
        },
        "authoredOn": "2025-10-10T09:35:00.000+00:00"
      },
      "request": {
        "method": "PUT",
        "url": "ServiceRequest/c91524bd-8ce3-451a-a03e-9b55c651d14d"
      }
    },
    {
      "fullUrl": "https://madie.cms.gov/Condition/dbeb3b4a-7c70-4462-b8b7-8a486d20b7f4",
      "resource": {
        "resourceType": "Condition",
        "id": "dbeb3b4a-7c70-4462-b8b7-8a486d20b7f4",
        "meta": {
          "profile": [
            "http://hl7.org/fhir/us/qicore/StructureDefinition/qicore-condition"
          ]
        },
        "clinicalStatus": {
          "coding": [
            {
              "system": "http://terminology.hl7.org/CodeSystem/condition-clinical",
              "code": "active"
            }
          ]
        },
        "verificationStatus": {
          "coding": [
            {
              "system": "http://terminology.hl7.org/CodeSystem/condition-ver-status",
              "code": "confirmed"
            }
          ]
        },
        "category": [
          {
            "coding": [
              {
                "system": "http://terminology.hl7.org/CodeSystem/condition-category",
                "code": "encounter-diagnosis",
                "display": "Encounter Diagnosis"
              }
            ]
          }
        ],
        "code": {
          "coding": [
            {
              "system": "http://snomed.info/sct",
              "version": "2020-09",
              "code": "111297002",
              "display": "Nonparalytic stroke (disorder)",
              "userSelected": true
            }
          ]
        },
        "subject": {
          "reference": "Patient/312e8ada-4ca0-4efc-92f8-1cc0331eb141"
        },
        "recordedDate": "2025-07-14T08:00:00.000+00:00"
      },
      "request": {
        "method": "PUT",
        "url": "Condition/dbeb3b4a-7c70-4462-b8b7-8a486d20b7f4"
      }
    },
    {
      "fullUrl": "https://madie.cms.gov/Coverage/1db47746-a7f4-4745-9806-b1430674dd15",
      "resource": {
        "resourceType": "Coverage",
        "id": "1db47746-a7f4-4745-9806-b1430674dd15",
        "meta": {
          "profile": [
            "http://hl7.org/fhir/us/qicore/StructureDefinition/qicore-coverage"
          ]
        },
        "status": "active",
        "beneficiary": {
          "reference": "Patient/312e8ada-4ca0-4efc-92f8-1cc0331eb141"
        },
        "payor": [
          {
            "reference": "Organization/b7738fad-7ba4-42b5-ad85-de393ed97a1f"
          }
        ]
      },
      "request": {
        "method": "PUT",
        "url": "Coverage/1db47746-a7f4-4745-9806-b1430674dd15"
      }
    },
    {
      "fullUrl": "https://madie.cms.gov/Organization/b7738fad-7ba4-42b5-ad85-de393ed97a1f",
      "resource": {
        "resourceType": "Organization",
        "id": "b7738fad-7ba4-42b5-ad85-de393ed97a1f",
        "meta": {
          "profile": [
            "http://hl7.org/fhir/us/qicore/StructureDefinition/qicore-organization"
          ]
        },
        "identifier": [
          {
            "use": "temp",
            "system": "urn:oid:2.16.840.1.113883.4.4",
            "value": "21-3259825"
          }
        ],
        "active": true,
        "type": [
          {
            "coding": [
              {
                "system": "http://terminology.hl7.org/CodeSystem/organization-type",
                "code": "pay",
                "display": "Payer"
              }
            ]
          }
        ],
        "name": "Blue Cross Blue Shield of Texas",
        "telecom": [
          {
            "system": "phone",
            "value": "(+1) 972-766-6900"
          }
        ],
        "address": [
          {
            "use": "billing",
            "type": "postal",
            "line": [
              "P.O. Box 660044"
            ],
            "city": "Dallas",
            "state": "TX",
            "postalCode": "75266-0044",
            "country": "USA"
          }
        ]
      },
      "request": {
        "method": "PUT",
        "url": "Organization/b7738fad-7ba4-42b5-ad85-de393ed97a1f"
      }
    },
    {
      "fullUrl": "https://madie.cms.gov/MeasureReport/c8e9fb02-7239-4a03-b443-3747428b4e50",
      "resource": {
        "resourceType": "MeasureReport",
        "id": "c8e9fb02-7239-4a03-b443-3747428b4e50",
        "meta": {
          "profile": [
            "http://hl7.org/fhir/us/cqfmeasures/StructureDefinition/test-case-cqfm"
          ]
        },
        "contained": [
          {
            "resourceType": "Parameters",
            "id": "8cf0e236-fd36-4d1e-9b8a-96cd02808760-parameters",
            "parameter": [
              {
                "name": "subject",
                "valueString": "312e8ada-4ca0-4efc-92f8-1cc0331eb141"
              }
            ]
          }
        ],
        "extension": [
          {
            "url": "http://hl7.org/fhir/us/cqfmeasures/StructureDefinition/cqfm-inputParameters",
            "valueReference": {
              "reference": "#8cf0e236-fd36-4d1e-9b8a-96cd02808760-parameters"
            }
          },
          {
            "url": "http://hl7.org/fhir/us/cqfmeasures/StructureDefinition/cqfm-testCaseDescription",
            "valueMarkdown": "Patient receives CMO on IP start. ED ends on OBS start and OBS ends on IP start. Testing day of operator with HospitalizationWithObservation function.\n"
          }
        ],
        "modifierExtension": [
          {
            "url": "http://hl7.org/fhir/us/cqfmeasures/StructureDefinition/cqfm-isTestCase",
            "valueBoolean": true
          }
        ],
        "status": "complete",
        "type": "individual",
        "measure": "https://madie.cms.gov/Measure/DischargedonAntithromboticTherapyFHIR",
        "period": {
          "start": "2025-01-01",
          "end": "2025-12-31"
        },
        "group": [
          {
            "population": [
              {
                "code": {
                  "coding": [
                    {
                      "system": "http://terminology.hl7.org/CodeSystem/measure-population",
                      "code": "initial-population",
                      "display": "Initial Population"
                    }
                  ]
                },
                "count": 1
              },
              {
                "code": {
                  "coding": [
                    {
                      "system": "http://terminology.hl7.org/CodeSystem/measure-population",
                      "code": "denominator",
                      "display": "Denominator"
                    }
                  ]
                },
                "count": 1
              },
              {
                "code": {
                  "coding": [
                    {
                      "system": "http://terminology.hl7.org/CodeSystem/measure-population",
                      "code": "denominator-exclusion",
                      "display": "Denominator Exclusion"
                    }
                  ]
                },
                "count": 1
              },
              {
                "code": {
                  "coding": [
                    {
                      "system": "http://terminology.hl7.org/CodeSystem/measure-population",
                      "code": "numerator",
                      "display": "Numerator"
                    }
                  ]
                },
                "count": 0
              },
              {
                "code": {
                  "coding": [
                    {
                      "system": "http://terminology.hl7.org/CodeSystem/measure-population",
                      "code": "denominator-exception",
                      "display": "Denominator Exception"
                    }
                  ]
                },
                "count": 0
              }
            ]
          }
        ],
        "evaluatedResource": [
          {
            "reference": "Patient/312e8ada-4ca0-4efc-92f8-1cc0331eb141"
          },
          {
            "reference": "Encounter/f7dd845e-6771-44d1-9702-412e02788713"
          },
          {
            "reference": "Encounter/dffe3cef-baa5-4560-ab50-f03e9300cd05"
          },
          {
            "reference": "Encounter/28260696-3385-49c9-a57c-99cc3cbf11e2"
          },
          {
            "reference": "ServiceRequest/c91524bd-8ce3-451a-a03e-9b55c651d14d"
          },
          {
            "reference": "Condition/dbeb3b4a-7c70-4462-b8b7-8a486d20b7f4"
          },
          {
            "reference": "Coverage/1db47746-a7f4-4745-9806-b1430674dd15"
          },
          {
            "reference": "Organization/b7738fad-7ba4-42b5-ad85-de393ed97a1f"
          }
        ]
      },
      "request": {
        "method": "PUT",
        "url": "MeasureReport/c8e9fb02-7239-4a03-b443-3747428b4e50"
      }
    }
  ]
}