{
  "resourceType": "Bundle",
  "id": "633b3fa00968f80122503d2a",
  "type": "transaction",
  "entry": [
    {
      "fullUrl": "https://madie.cms.gov/Patient/2dc295a7-85e9-46e4-8a7a-db11398ccac4",
      "resource": {
        "resourceType": "Patient",
        "id": "2dc295a7-85e9-46e4-8a7a-db11398ccac4",
        "meta": {
          "profile": [
            "http://hl7.org/fhir/us/qicore/StructureDefinition/qicore-patient"
          ]
        },
        "text": {
          "status": "generated",
          "div": "<div xmlns=\"http://www.w3.org/1999/xhtml\"><div class=\"hapiHeaderText\">DelProcRelDtTmMidnightDayAftEncEnds <b>IPFAIL </b></div><table class=\"hapiPropertyTable\"><tbody><tr><td>Date of birth</td><td><span>31 January 2004</span></td></tr></tbody></table></div>"
        },
        "extension": [
          {
            "url": "http://hl7.org/fhir/us/core/StructureDefinition/us-core-race",
            "extension": [
              {
                "url": "ombCategory",
                "valueCoding": {
                  "system": "urn:oid:2.16.840.1.113883.6.238",
                  "code": "1002-5",
                  "display": "American Indian or Alaska Native",
                  "userSelected": true
                }
              },
              {
                "url": "text",
                "valueString": "American Indian or Alaska Native"
              }
            ]
          },
          {
            "url": "http://hl7.org/fhir/us/core/StructureDefinition/us-core-ethnicity",
            "extension": [
              {
                "url": "ombCategory",
                "valueCoding": {
                  "system": "urn:oid:2.16.840.1.113883.6.238",
                  "code": "2135-2",
                  "display": "Hispanic or Latino",
                  "userSelected": true
                }
              },
              {
                "url": "text",
                "valueString": "Hispanic or Latino"
              }
            ]
          }
        ],
        "identifier": [
          {
            "type": {
              "coding": [
                {
                  "system": "http://terminology.hl7.org/CodeSystem/v2-0203",
                  "code": "MR"
                }
              ]
            },
            "system": "https://bonnie-fhir.healthit.gov/",
            "value": "633b3fa00968f80122503d2a"
          }
        ],
        "active": true,
        "name": [
          {
            "use": "usual",
            "family": "IPFail",
            "given": [
              "DelProcRelDtTmMidnightDayAftEncEnds"
            ]
          }
        ],
        "gender": "female",
        "birthDate": "2004-01-31"
      },
      "request": {
        "method": "PUT",
        "url": "Patient/2dc295a7-85e9-46e4-8a7a-db11398ccac4"
      }
    },
    {
      "fullUrl": "https://madie.cms.gov/Encounter/42281809-d405-46bb-a10f-e26e2fda4e8d",
      "resource": {
        "resourceType": "Encounter",
        "id": "42281809-d405-46bb-a10f-e26e2fda4e8d",
        "meta": {
          "profile": [
            "http://hl7.org/fhir/us/qicore/StructureDefinition/qicore-encounter"
          ]
        },
        "status": "finished",
        "class": {
          "system": "http://terminology.hl7.org/CodeSystem/v3-ActCode",
          "code": "IMP",
          "display": "inpatient encounter"
        },
        "type": [
          {
            "coding": [
              {
                "system": "http://snomed.info/sct",
                "code": "183452005"
              }
            ]
          }
        ],
        "subject": {
          "reference": "Patient/2dc295a7-85e9-46e4-8a7a-db11398ccac4"
        },
        "period": {
          "start": "2024-02-01T09:00:00.000Z",
          "end": "2024-02-05T08:15:00.000Z"
        }
      },
      "request": {
        "method": "PUT",
        "url": "Encounter/42281809-d405-46bb-a10f-e26e2fda4e8d"
      }
    },
    {
      "fullUrl": "https://madie.cms.gov/Procedure/02b150ab-dd32-48ae-910e-b711d69b396f",
      "resource": {
        "resourceType": "Procedure",
        "id": "02b150ab-dd32-48ae-910e-b711d69b396f",
        "meta": {
          "profile": [
            "http://hl7.org/fhir/us/qicore/StructureDefinition/qicore-procedure"
          ]
        },
        "extension": [
          {
            "url": "http://hl7.org/fhir/us/qicore/StructureDefinition/qicore-recorded",
            "valueDateTime": "2013-04-05T09:35:00-04:00"
          }
        ],
        "status": "completed",
        "code": {
          "coding": [
            {
              "system": "http://snomed.info/sct",
              "code": "10745001"
            }
          ]
        },
        "subject": {
          "reference": "Patient/2dc295a7-85e9-46e4-8a7a-db11398ccac4"
        },
        "performedDateTime": "2024-02-06T00:00:00.000+00:00"
      },
      "request": {
        "method": "PUT",
        "url": "Procedure/02b150ab-dd32-48ae-910e-b711d69b396f"
      }
    },
    {
      "fullUrl": "https://madie.cms.gov/Coverage/e341f8fd-e6b7-4808-9f03-1e0dc58f2793",
      "resource": {
        "resourceType": "Coverage",
        "id": "e341f8fd-e6b7-4808-9f03-1e0dc58f2793",
        "meta": {
          "profile": [
            "http://hl7.org/fhir/us/qicore/StructureDefinition/qicore-coverage"
          ]
        },
        "status": "active",
        "beneficiary": {
          "reference": "Patient/2dc295a7-85e9-46e4-8a7a-db11398ccac4"
        },
        "payor": [
          {
            "reference": "Organization/074ac487-29b9-4b0d-ba00-698ee89269a1"
          }
        ]
      },
      "request": {
        "method": "PUT",
        "url": "Coverage/e341f8fd-e6b7-4808-9f03-1e0dc58f2793"
      }
    },
    {
      "fullUrl": "https://madie.cms.gov/Organization/074ac487-29b9-4b0d-ba00-698ee89269a1",
      "resource": {
        "resourceType": "Organization",
        "id": "074ac487-29b9-4b0d-ba00-698ee89269a1",
        "meta": {
          "profile": [
            "http://hl7.org/fhir/us/qicore/StructureDefinition/qicore-organization"
          ]
        },
        "identifier": [
          {
            "use": "temp",
            "system": "urn:oid:2.16.840.1.113883.4.4",
            "value": "21-3259825"
          }
        ],
        "active": true,
        "type": [
          {
            "coding": [
              {
                "system": "http://terminology.hl7.org/CodeSystem/organization-type",
                "code": "pay",
                "display": "Payer"
              }
            ]
          }
        ],
        "name": "Blue Cross Blue Shield of Texas",
        "telecom": [
          {
            "system": "phone",
            "value": "(+1) 972-766-6900"
          }
        ],
        "address": [
          {
            "use": "billing",
            "type": "postal",
            "line": [
              "P.O. Box 660044"
            ],
            "city": "Dallas",
            "state": "TX",
            "postalCode": "75266-0044",
            "country": "USA"
          }
        ]
      },
      "request": {
        "method": "PUT",
        "url": "Organization/074ac487-29b9-4b0d-ba00-698ee89269a1"
      }
    },
    {
      "fullUrl": "https://madie.cms.gov/Practitioner/a6d6be0d-fcb3-4ed9-bb7d-be939c9cdf37",
      "resource": {
        "resourceType": "Practitioner",
        "id": "a6d6be0d-fcb3-4ed9-bb7d-be939c9cdf37",
        "identifier": [
          {
            "system": "http://hl7.org/fhir/sid/us-npi",
            "value": "123456"
          }
        ],
        "name": [
          {
            "family": "Evil",
            "prefix": [
              "Dr"
            ]
          }
        ]
      },
      "request": {
        "method": "PUT",
        "url": "Practitioner/a6d6be0d-fcb3-4ed9-bb7d-be939c9cdf37"
      }
    },
    {
      "fullUrl": "https://madie.cms.gov/MeasureReport/617ae67f-6def-445e-aab3-5fc405e810e2",
      "resource": {
        "resourceType": "MeasureReport",
        "id": "617ae67f-6def-445e-aab3-5fc405e810e2",
        "meta": {
          "profile": [
            "http://hl7.org/fhir/us/cqfmeasures/StructureDefinition/test-case-cqfm"
          ]
        },
        "contained": [
          {
            "resourceType": "Parameters",
            "id": "8ff65281-a924-4c59-a8d1-010b767d30b0-parameters",
            "parameter": [
              {
                "name": "subject",
                "valueString": "2dc295a7-85e9-46e4-8a7a-db11398ccac4"
              }
            ]
          }
        ],
        "extension": [
          {
            "url": "http://hl7.org/fhir/us/cqfmeasures/StructureDefinition/cqfm-inputParameters",
            "valueReference": {
              "reference": "#8ff65281-a924-4c59-a8d1-010b767d30b0-parameters"
            }
          },
          {
            "url": "http://hl7.org/fhir/us/cqfmeasures/StructureDefinition/cqfm-testCaseDescription",
            "valueMarkdown": "Delivery Procedure rel date/time = midnight day after encounter ends.\n"
          }
        ],
        "modifierExtension": [
          {
            "url": "http://hl7.org/fhir/us/cqfmeasures/StructureDefinition/cqfm-isTestCase",
            "valueBoolean": true
          }
        ],
        "status": "complete",
        "type": "individual",
        "measure": "https://madie.cms.gov/Measure/SevereObstetricComplicationsFHIR",
        "period": {
          "start": "2024-01-01",
          "end": "2024-12-31"
        },
        "group": [
          {
            "population": [
              {
                "code": {
                  "coding": [
                    {
                      "system": "http://terminology.hl7.org/CodeSystem/measure-population",
                      "code": "initial-population",
                      "display": "Initial Population"
                    }
                  ]
                },
                "count": 0
              },
              {
                "code": {
                  "coding": [
                    {
                      "system": "http://terminology.hl7.org/CodeSystem/measure-population",
                      "code": "denominator",
                      "display": "Denominator"
                    }
                  ]
                },
                "count": 0
              },
              {
                "code": {
                  "coding": [
                    {
                      "system": "http://terminology.hl7.org/CodeSystem/measure-population",
                      "code": "denominator-exclusion",
                      "display": "Denominator Exclusion"
                    }
                  ]
                },
                "count": 0
              },
              {
                "code": {
                  "coding": [
                    {
                      "system": "http://terminology.hl7.org/CodeSystem/measure-population",
                      "code": "numerator",
                      "display": "Numerator"
                    }
                  ]
                },
                "count": 0
              }
            ]
          }
        ],
        "evaluatedResource": [
          {
            "reference": "Patient/2dc295a7-85e9-46e4-8a7a-db11398ccac4"
          },
          {
            "reference": "Encounter/42281809-d405-46bb-a10f-e26e2fda4e8d"
          },
          {
            "reference": "Procedure/02b150ab-dd32-48ae-910e-b711d69b396f"
          },
          {
            "reference": "Coverage/e341f8fd-e6b7-4808-9f03-1e0dc58f2793"
          },
          {
            "reference": "Organization/074ac487-29b9-4b0d-ba00-698ee89269a1"
          },
          {
            "reference": "Practitioner/a6d6be0d-fcb3-4ed9-bb7d-be939c9cdf37"
          }
        ]
      },
      "request": {
        "method": "PUT",
        "url": "MeasureReport/617ae67f-6def-445e-aab3-5fc405e810e2"
      }
    }
  ]
}