{
  "resourceType": "Bundle",
  "id": "NUMPass-FlourideAppProcsJan1AndDec31OfMP",
  "type": "transaction",
  "entry": [
    {
      "fullUrl": "https://madie.cms.gov/Patient/c9f6e217-9e29-4f13-acdc-4fcb97f22dbb",
      "resource": {
        "resourceType": "Patient",
        "id": "c9f6e217-9e29-4f13-acdc-4fcb97f22dbb",
        "meta": {
          "profile": [
            "http://hl7.org/fhir/us/qicore/StructureDefinition/qicore-patient"
          ]
        },
        "extension": [
          {
            "url": "http://hl7.org/fhir/us/core/StructureDefinition/us-core-race",
            "extension": [
              {
                "url": "ombCategory",
                "valueCoding": {
                  "system": "urn:oid:2.16.840.1.113883.6.238",
                  "code": "2028-9",
                  "display": "Asian"
                }
              },
              {
                "url": "text",
                "valueString": "Asian"
              }
            ]
          },
          {
            "url": "http://hl7.org/fhir/us/core/StructureDefinition/us-core-ethnicity",
            "extension": [
              {
                "url": "ombCategory",
                "valueCoding": {
                  "system": "urn:oid:2.16.840.1.113883.6.238",
                  "code": "2135-2",
                  "display": "Hispanic or Latino"
                }
              },
              {
                "url": "text",
                "valueString": "Hispanic or Latino"
              }
            ]
          }
        ],
        "identifier": [
          {
            "system": "http://hospital.smarthealthit.org",
            "value": "999999995"
          }
        ],
        "name": [
          {
            "family": "Bertha",
            "given": [
              "Betty"
            ]
          }
        ],
        "gender": "female",
        "birthDate": "2005-01-01"
      },
      "request": {
        "method": "PUT",
        "url": "Patient/c9f6e217-9e29-4f13-acdc-4fcb97f22dbb"
      }
    },
    {
      "fullUrl": "https://madie.cms.gov/Encounter/35d6f9cd-6386-4403-ae87-5e4b84afe4ea",
      "resource": {
        "resourceType": "Encounter",
        "id": "35d6f9cd-6386-4403-ae87-5e4b84afe4ea",
        "meta": {
          "profile": [
            "http://hl7.org/fhir/us/qicore/StructureDefinition/qicore-encounter"
          ]
        },
        "status": "finished",
        "class": {
          "system": "http://terminology.hl7.org/CodeSystem/v3-ActCode",
          "code": "AMB",
          "display": "ambulatory"
        },
        "type": [
          {
            "coding": [
              {
                "system": "http://www.ada.org/cdt",
                "code": "D0120",
                "display": "periodic oral evaluation - established patient"
              }
            ]
          }
        ],
        "subject": {
          "reference": "Patient/c9f6e217-9e29-4f13-acdc-4fcb97f22dbb"
        },
        "period": {
          "start": "2025-01-01T00:00:00.000Z",
          "end": "2025-01-01T01:15:00.000Z"
        }
      },
      "request": {
        "method": "PUT",
        "url": "Encounter/35d6f9cd-6386-4403-ae87-5e4b84afe4ea"
      }
    },
    {
      "fullUrl": "https://madie.cms.gov/Procedure/05f11aea-befe-4e69-a2f4-240e0db4c3ad",
      "resource": {
        "resourceType": "Procedure",
        "id": "05f11aea-befe-4e69-a2f4-240e0db4c3ad",
        "meta": {
          "profile": [
            "http://hl7.org/fhir/us/qicore/StructureDefinition/qicore-procedure"
          ]
        },
        "extension": [
          {
            "url": "http://hl7.org/fhir/us/qicore/StructureDefinition/qicore-recorded",
            "valueDateTime": "2025-01-01T23:59:59.000Z"
          }
        ],
        "status": "completed",
        "code": {
          "coding": [
            {
              "system": "http://snomed.info/sct",
              "code": "313042009",
              "display": "Application of dental fluoride varnish (procedure)"
            }
          ]
        },
        "subject": {
          "reference": "Patient/c9f6e217-9e29-4f13-acdc-4fcb97f22dbb"
        },
        "performedPeriod": {
          "start": "2025-01-01T00:00:00.000Z",
          "end": "2025-01-01T23:59:59.000Z"
        }
      },
      "request": {
        "method": "PUT",
        "url": "Procedure/05f11aea-befe-4e69-a2f4-240e0db4c3ad"
      }
    },
    {
      "fullUrl": "https://madie.cms.gov/Procedure/05f11aea-befe-4e69-a2f4-240e0db4c3ad.1",
      "resource": {
        "resourceType": "Procedure",
        "id": "05f11aea-befe-4e69-a2f4-240e0db4c3ad.1",
        "meta": {
          "profile": [
            "http://hl7.org/fhir/us/qicore/StructureDefinition/qicore-procedure"
          ]
        },
        "extension": [
          {
            "url": "http://hl7.org/fhir/us/qicore/StructureDefinition/qicore-recorded",
            "valueDateTime": "2025-12-31T23:59:59.000Z"
          }
        ],
        "status": "completed",
        "code": {
          "coding": [
            {
              "system": "http://snomed.info/sct",
              "code": "313042009",
              "display": "Application of dental fluoride varnish (procedure)"
            }
          ]
        },
        "subject": {
          "reference": "Patient/c9f6e217-9e29-4f13-acdc-4fcb97f22dbb"
        },
        "performedPeriod": {
          "start": "2025-12-31T00:00:00.000Z",
          "end": "2025-12-31T23:59:59.000Z"
        }
      },
      "request": {
        "method": "PUT",
        "url": "Procedure/05f11aea-befe-4e69-a2f4-240e0db4c3ad.1"
      }
    },
    {
      "fullUrl": "https://madie.cms.gov/MeasureReport/ddb5ffa9-7f51-4317-b55d-b520979a8bde",
      "resource": {
        "resourceType": "MeasureReport",
        "id": "ddb5ffa9-7f51-4317-b55d-b520979a8bde",
        "meta": {
          "profile": [
            "http://hl7.org/fhir/us/cqfmeasures/StructureDefinition/test-case-cqfm"
          ]
        },
        "contained": [
          {
            "resourceType": "Parameters",
            "id": "e2286e4a-c930-4c59-a0aa-4e37b0f80239-parameters",
            "parameter": [
              {
                "name": "subject",
                "valueString": "c9f6e217-9e29-4f13-acdc-4fcb97f22dbb"
              }
            ]
          }
        ],
        "extension": [
          {
            "url": "http://hl7.org/fhir/us/cqfmeasures/StructureDefinition/cqfm-inputParameters",
            "valueReference": {
              "reference": "#e2286e4a-c930-4c59-a0aa-4e37b0f80239-parameters"
            }
          },
          {
            "url": "http://hl7.org/fhir/us/cqfmeasures/StructureDefinition/cqfm-testCaseDescription",
            "valueMarkdown": "Patient 20yo w/ an Oral Evaluation Encounter 1/1 of the MP & 2 Flouride Application Procedures that end on 1/1, and 12/31 during the MP."
          }
        ],
        "modifierExtension": [
          {
            "url": "http://hl7.org/fhir/us/cqfmeasures/StructureDefinition/cqfm-isTestCase",
            "valueBoolean": true
          }
        ],
        "status": "complete",
        "type": "individual",
        "measure": "https://madie.cms.gov/Measure/PrimaryCariesPreventionasOfferedbyDentistsFHIR",
        "period": {
          "start": "2025-01-01",
          "end": "2025-12-31"
        },
        "group": [
          {
            "population": [
              {
                "code": {
                  "coding": [
                    {
                      "system": "http://terminology.hl7.org/CodeSystem/measure-population",
                      "code": "initial-population",
                      "display": "Initial Population"
                    }
                  ]
                },
                "count": 1
              },
              {
                "code": {
                  "coding": [
                    {
                      "system": "http://terminology.hl7.org/CodeSystem/measure-population",
                      "code": "denominator",
                      "display": "Denominator"
                    }
                  ]
                },
                "count": 1
              },
              {
                "code": {
                  "coding": [
                    {
                      "system": "http://terminology.hl7.org/CodeSystem/measure-population",
                      "code": "denominator-exclusion",
                      "display": "Denominator Exclusion"
                    }
                  ]
                },
                "count": 0
              },
              {
                "code": {
                  "coding": [
                    {
                      "system": "http://terminology.hl7.org/CodeSystem/measure-population",
                      "code": "numerator",
                      "display": "Numerator"
                    }
                  ]
                },
                "count": 1
              }
            ]
          }
        ],
        "evaluatedResource": [
          {
            "reference": "Patient/c9f6e217-9e29-4f13-acdc-4fcb97f22dbb"
          },
          {
            "reference": "Encounter/35d6f9cd-6386-4403-ae87-5e4b84afe4ea"
          },
          {
            "reference": "Procedure/05f11aea-befe-4e69-a2f4-240e0db4c3ad"
          },
          {
            "reference": "Procedure/05f11aea-befe-4e69-a2f4-240e0db4c3ad.1"
          }
        ]
      },
      "request": {
        "method": "PUT",
        "url": "MeasureReport/ddb5ffa9-7f51-4317-b55d-b520979a8bde"
      }
    }
  ]
}