{
  "resourceType": "Bundle",
  "id": "6129131c02c62a011f2e5ce4",
  "type": "transaction",
  "entry": [
    {
      "fullUrl": "https://madie.cms.gov/Patient/d831bbe6-72b7-47a0-a7a9-9a6e3498ab7a",
      "resource": {
        "resourceType": "Patient",
        "id": "d831bbe6-72b7-47a0-a7a9-9a6e3498ab7a",
        "meta": {
          "profile": [
            "http://hl7.org/fhir/us/qicore/StructureDefinition/qicore-patient"
          ]
        },
        "text": {
          "status": "generated",
          "div": "<div xmlns=\"http://www.w3.org/1999/xhtml\"><div class=\"hapiHeaderText\">CMOdurEnc_NoEDNoObsBFEnc_RelePer <b>DENEXPASS </b></div><table class=\"hapiPropertyTable\"><tbody><tr><td>Identifier</td><td>270a4a50c739a1f77aad325117fa9566</td></tr><tr><td>Date of birth</td><td><span>21 August 1994</span></td></tr></tbody></table></div>"
        },
        "extension": [
          {
            "url": "http://hl7.org/fhir/us/core/StructureDefinition/us-core-race",
            "extension": [
              {
                "url": "ombCategory",
                "valueCoding": {
                  "system": "urn:oid:2.16.840.1.113883.6.238",
                  "code": "1002-5",
                  "display": "American Indian or Alaska Native",
                  "userSelected": true
                }
              },
              {
                "url": "text",
                "valueString": "American Indian or Alaska Native"
              }
            ]
          },
          {
            "url": "http://hl7.org/fhir/us/core/StructureDefinition/us-core-ethnicity",
            "extension": [
              {
                "url": "ombCategory",
                "valueCoding": {
                  "system": "urn:oid:2.16.840.1.113883.6.238",
                  "code": "2135-2",
                  "display": "Hispanic or Latino",
                  "userSelected": true
                }
              },
              {
                "url": "text",
                "valueString": "Hispanic or Latino"
              }
            ]
          }
        ],
        "identifier": [
          {
            "type": {
              "coding": [
                {
                  "system": "http://terminology.hl7.org/CodeSystem/v2-0203",
                  "code": "MR"
                }
              ]
            },
            "system": "https://bonnie-fhir.healthit.gov/",
            "value": "6129131c02c62a011f2e5ce4"
          }
        ],
        "active": true,
        "name": [
          {
            "use": "usual",
            "family": "DENEXPass",
            "given": [
              "CMOdurEnc_NoEDNoObsBFEnc_RelePer"
            ]
          }
        ],
        "gender": "male",
        "birthDate": "1994-08-21"
      },
      "request": {
        "method": "PUT",
        "url": "Patient/d831bbe6-72b7-47a0-a7a9-9a6e3498ab7a"
      }
    },
    {
      "fullUrl": "https://madie.cms.gov/Encounter/d89690f2-f667-4c95-9543-c8935692e48b",
      "resource": {
        "resourceType": "Encounter",
        "id": "d89690f2-f667-4c95-9543-c8935692e48b",
        "meta": {
          "profile": [
            "http://hl7.org/fhir/us/qicore/StructureDefinition/qicore-encounter"
          ]
        },
        "status": "finished",
        "class": {
          "system": "http://terminology.hl7.org/CodeSystem/v3-ActCode",
          "code": "IMP",
          "display": "inpatient encounter",
          "userSelected": true
        },
        "type": [
          {
            "coding": [
              {
                "system": "http://snomed.info/sct",
                "code": "32485007"
              }
            ]
          }
        ],
        "subject": {
          "reference": "Patient/d831bbe6-72b7-47a0-a7a9-9a6e3498ab7a"
        },
        "period": {
          "start": "2025-10-10T10:30:00.000+00:00",
          "end": "2025-10-12T11:30:00.000+00:00"
        },
        "length": {
          "value": 2,
          "unit": "days"
        },
        "diagnosis": [
          {
            "condition": {
              "reference": "Condition/b93ef92a-63be-4570-b598-cb5b79ed1a73"
            },
            "use": {
              "coding": [
                {
                  "system": "http://terminology.hl7.org/CodeSystem/diagnosis-role",
                  "code": "billing",
                  "display": "Billing"
                }
              ]
            },
            "rank": 1
          }
        ]
      },
      "request": {
        "method": "PUT",
        "url": "Encounter/d89690f2-f667-4c95-9543-c8935692e48b"
      }
    },
    {
      "fullUrl": "https://madie.cms.gov/Procedure/7f7f441e-e7cb-41ea-bb14-bccac9798c7f",
      "resource": {
        "resourceType": "Procedure",
        "id": "7f7f441e-e7cb-41ea-bb14-bccac9798c7f",
        "meta": {
          "profile": [
            "http://hl7.org/fhir/us/qicore/StructureDefinition/qicore-procedure"
          ]
        },
        "extension": [
          {
            "url": "http://hl7.org/fhir/us/qicore/StructureDefinition/qicore-recorded",
            "valueDateTime": "2013-04-05T09:35:00-04:00"
          }
        ],
        "status": "completed",
        "code": {
          "coding": [
            {
              "system": "http://snomed.info/sct",
              "code": "133918004"
            }
          ]
        },
        "subject": {
          "reference": "Patient/d831bbe6-72b7-47a0-a7a9-9a6e3498ab7a"
        },
        "performedDateTime": "2025-10-10T10:30:00.000+00:00"
      },
      "request": {
        "method": "PUT",
        "url": "Procedure/7f7f441e-e7cb-41ea-bb14-bccac9798c7f"
      }
    },
    {
      "fullUrl": "https://madie.cms.gov/Condition/b93ef92a-63be-4570-b598-cb5b79ed1a73",
      "resource": {
        "resourceType": "Condition",
        "id": "b93ef92a-63be-4570-b598-cb5b79ed1a73",
        "meta": {
          "profile": [
            "http://hl7.org/fhir/us/qicore/StructureDefinition/qicore-condition"
          ]
        },
        "clinicalStatus": {
          "coding": [
            {
              "system": "http://terminology.hl7.org/CodeSystem/condition-clinical",
              "code": "active"
            }
          ]
        },
        "verificationStatus": {
          "coding": [
            {
              "system": "http://terminology.hl7.org/CodeSystem/condition-ver-status",
              "code": "confirmed"
            }
          ]
        },
        "category": [
          {
            "coding": [
              {
                "system": "http://terminology.hl7.org/CodeSystem/condition-category",
                "code": "encounter-diagnosis",
                "display": "Encounter Diagnosis"
              }
            ]
          }
        ],
        "code": {
          "coding": [
            {
              "system": "http://snomed.info/sct",
              "version": "2020-09",
              "code": "111297002",
              "display": "Nonparalytic stroke (disorder)",
              "userSelected": true
            }
          ]
        },
        "subject": {
          "reference": "Patient/d831bbe6-72b7-47a0-a7a9-9a6e3498ab7a"
        },
        "recordedDate": "2025-07-14T08:00:00.000+00:00"
      },
      "request": {
        "method": "PUT",
        "url": "Condition/b93ef92a-63be-4570-b598-cb5b79ed1a73"
      }
    },
    {
      "fullUrl": "https://madie.cms.gov/Coverage/0aca10c4-091e-4b68-b385-c7c57d626a2e",
      "resource": {
        "resourceType": "Coverage",
        "id": "0aca10c4-091e-4b68-b385-c7c57d626a2e",
        "meta": {
          "profile": [
            "http://hl7.org/fhir/us/qicore/StructureDefinition/qicore-coverage"
          ]
        },
        "status": "active",
        "beneficiary": {
          "reference": "Patient/d831bbe6-72b7-47a0-a7a9-9a6e3498ab7a"
        },
        "payor": [
          {
            "reference": "Organization/f9824845-8129-478c-bb7d-698889a0cca3"
          }
        ]
      },
      "request": {
        "method": "PUT",
        "url": "Coverage/0aca10c4-091e-4b68-b385-c7c57d626a2e"
      }
    },
    {
      "fullUrl": "https://madie.cms.gov/Organization/f9824845-8129-478c-bb7d-698889a0cca3",
      "resource": {
        "resourceType": "Organization",
        "id": "f9824845-8129-478c-bb7d-698889a0cca3",
        "meta": {
          "profile": [
            "http://hl7.org/fhir/us/qicore/StructureDefinition/qicore-organization"
          ]
        },
        "identifier": [
          {
            "use": "temp",
            "system": "urn:oid:2.16.840.1.113883.4.4",
            "value": "21-3259825"
          }
        ],
        "active": true,
        "type": [
          {
            "coding": [
              {
                "system": "http://terminology.hl7.org/CodeSystem/organization-type",
                "code": "pay",
                "display": "Payer"
              }
            ]
          }
        ],
        "name": "Blue Cross Blue Shield of Texas",
        "telecom": [
          {
            "system": "phone",
            "value": "(+1) 972-766-6900"
          }
        ],
        "address": [
          {
            "use": "billing",
            "type": "postal",
            "line": [
              "P.O. Box 660044"
            ],
            "city": "Dallas",
            "state": "TX",
            "postalCode": "75266-0044",
            "country": "USA"
          }
        ]
      },
      "request": {
        "method": "PUT",
        "url": "Organization/f9824845-8129-478c-bb7d-698889a0cca3"
      }
    },
    {
      "fullUrl": "https://madie.cms.gov/MeasureReport/8e2e943e-26c6-44a4-a44d-cdd53a3419cc",
      "resource": {
        "resourceType": "MeasureReport",
        "id": "8e2e943e-26c6-44a4-a44d-cdd53a3419cc",
        "meta": {
          "profile": [
            "http://hl7.org/fhir/us/cqfmeasures/StructureDefinition/test-case-cqfm"
          ]
        },
        "contained": [
          {
            "resourceType": "Parameters",
            "id": "c63e68ba-e753-4c5a-834d-65e677e61ce7-parameters",
            "parameter": [
              {
                "name": "subject",
                "valueString": "d831bbe6-72b7-47a0-a7a9-9a6e3498ab7a"
              }
            ]
          }
        ],
        "extension": [
          {
            "url": "http://hl7.org/fhir/us/cqfmeasures/StructureDefinition/cqfm-inputParameters",
            "valueReference": {
              "reference": "#c63e68ba-e753-4c5a-834d-65e677e61ce7-parameters"
            }
          },
          {
            "url": "http://hl7.org/fhir/us/cqfmeasures/StructureDefinition/cqfm-testCaseDescription",
            "valueMarkdown": "Patient receives CMO during inpatient encounter. No ED. No Observation. Testing day of operator with ospitalizationWithObservation function.\n"
          }
        ],
        "modifierExtension": [
          {
            "url": "http://hl7.org/fhir/us/cqfmeasures/StructureDefinition/cqfm-isTestCase",
            "valueBoolean": true
          }
        ],
        "status": "complete",
        "type": "individual",
        "measure": "https://madie.cms.gov/Measure/DischargedonAntithromboticTherapyFHIR",
        "period": {
          "start": "2025-01-01",
          "end": "2025-12-31"
        },
        "group": [
          {
            "population": [
              {
                "code": {
                  "coding": [
                    {
                      "system": "http://terminology.hl7.org/CodeSystem/measure-population",
                      "code": "initial-population",
                      "display": "Initial Population"
                    }
                  ]
                },
                "count": 1
              },
              {
                "code": {
                  "coding": [
                    {
                      "system": "http://terminology.hl7.org/CodeSystem/measure-population",
                      "code": "denominator",
                      "display": "Denominator"
                    }
                  ]
                },
                "count": 1
              },
              {
                "code": {
                  "coding": [
                    {
                      "system": "http://terminology.hl7.org/CodeSystem/measure-population",
                      "code": "denominator-exclusion",
                      "display": "Denominator Exclusion"
                    }
                  ]
                },
                "count": 1
              },
              {
                "code": {
                  "coding": [
                    {
                      "system": "http://terminology.hl7.org/CodeSystem/measure-population",
                      "code": "numerator",
                      "display": "Numerator"
                    }
                  ]
                },
                "count": 0
              },
              {
                "code": {
                  "coding": [
                    {
                      "system": "http://terminology.hl7.org/CodeSystem/measure-population",
                      "code": "denominator-exception",
                      "display": "Denominator Exception"
                    }
                  ]
                },
                "count": 0
              }
            ]
          }
        ],
        "evaluatedResource": [
          {
            "reference": "Patient/d831bbe6-72b7-47a0-a7a9-9a6e3498ab7a"
          },
          {
            "reference": "Encounter/d89690f2-f667-4c95-9543-c8935692e48b"
          },
          {
            "reference": "Procedure/7f7f441e-e7cb-41ea-bb14-bccac9798c7f"
          },
          {
            "reference": "Condition/b93ef92a-63be-4570-b598-cb5b79ed1a73"
          },
          {
            "reference": "Coverage/0aca10c4-091e-4b68-b385-c7c57d626a2e"
          },
          {
            "reference": "Organization/f9824845-8129-478c-bb7d-698889a0cca3"
          }
        ]
      },
      "request": {
        "method": "PUT",
        "url": "MeasureReport/8e2e943e-26c6-44a4-a44d-cdd53a3419cc"
      }
    }
  ]
}