{
  "resourceType": "Bundle",
  "id": "6129135702c62a011f2e75cf",
  "type": "transaction",
  "entry": [
    {
      "fullUrl": "https://madie.cms.gov/Patient/ff523a7d-41ea-455f-8cd5-af4369fb4786",
      "resource": {
        "resourceType": "Patient",
        "id": "ff523a7d-41ea-455f-8cd5-af4369fb4786",
        "meta": {
          "profile": [
            "http://hl7.org/fhir/us/qicore/StructureDefinition/qicore-patient"
          ]
        },
        "text": {
          "status": "generated",
          "div": "<div xmlns=\"http://www.w3.org/1999/xhtml\"><div class=\"hapiHeaderText\">BadDef_NoneSTK <b>IPFAIL </b></div><table class=\"hapiPropertyTable\"><tbody><tr><td>Identifier</td><td>05f04bc3a037918e7f8e8e698f994329</td></tr><tr><td>Date of birth</td><td><span>21 August 1994</span></td></tr></tbody></table></div>"
        },
        "extension": [
          {
            "url": "http://hl7.org/fhir/us/core/StructureDefinition/us-core-race",
            "extension": [
              {
                "url": "ombCategory",
                "valueCoding": {
                  "system": "urn:oid:2.16.840.1.113883.6.238",
                  "code": "1002-5",
                  "display": "American Indian or Alaska Native",
                  "userSelected": true
                }
              },
              {
                "url": "text",
                "valueString": "American Indian or Alaska Native"
              }
            ]
          },
          {
            "url": "http://hl7.org/fhir/us/core/StructureDefinition/us-core-ethnicity",
            "extension": [
              {
                "url": "ombCategory",
                "valueCoding": {
                  "system": "urn:oid:2.16.840.1.113883.6.238",
                  "code": "2135-2",
                  "display": "Hispanic or Latino",
                  "userSelected": true
                }
              },
              {
                "url": "text",
                "valueString": "Hispanic or Latino"
              }
            ]
          }
        ],
        "identifier": [
          {
            "type": {
              "coding": [
                {
                  "system": "http://terminology.hl7.org/CodeSystem/v2-0203",
                  "code": "MR"
                }
              ]
            },
            "system": "https://bonnie-fhir.healthit.gov/",
            "value": "6129135702c62a011f2e75cf"
          }
        ],
        "active": true,
        "name": [
          {
            "use": "usual",
            "family": "IPFail",
            "given": [
              "BadDef_NoneSTK"
            ]
          }
        ],
        "gender": "male",
        "birthDate": "2003-08-21"
      },
      "request": {
        "method": "PUT",
        "url": "Patient/ff523a7d-41ea-455f-8cd5-af4369fb4786"
      }
    },
    {
      "fullUrl": "https://madie.cms.gov/Encounter/71f6d2c1-147f-4b8f-9c9e-a449354a9817",
      "resource": {
        "resourceType": "Encounter",
        "id": "71f6d2c1-147f-4b8f-9c9e-a449354a9817",
        "meta": {
          "profile": [
            "http://hl7.org/fhir/us/qicore/StructureDefinition/qicore-encounter"
          ]
        },
        "status": "finished",
        "class": {
          "system": "http://terminology.hl7.org/CodeSystem/v3-ActCode",
          "code": "IMP",
          "display": "inpatient encounter",
          "userSelected": true
        },
        "type": [
          {
            "coding": [
              {
                "system": "http://snomed.info/sct",
                "code": "32485007"
              }
            ]
          }
        ],
        "subject": {
          "reference": "Patient/ff523a7d-41ea-455f-8cd5-af4369fb4786"
        },
        "period": {
          "start": "2025-08-21T09:30:00.000+00:00",
          "end": "2025-12-19T10:30:00.000+00:00"
        },
        "length": {
          "value": 120,
          "unit": "days"
        }
      },
      "request": {
        "method": "PUT",
        "url": "Encounter/71f6d2c1-147f-4b8f-9c9e-a449354a9817"
      }
    },
    {
      "fullUrl": "https://madie.cms.gov/Coverage/8e4bec6c-95d2-402c-a875-9aa167aaedbe",
      "resource": {
        "resourceType": "Coverage",
        "id": "8e4bec6c-95d2-402c-a875-9aa167aaedbe",
        "meta": {
          "profile": [
            "http://hl7.org/fhir/us/qicore/StructureDefinition/qicore-coverage"
          ]
        },
        "status": "active",
        "beneficiary": {
          "reference": "Patient/ff523a7d-41ea-455f-8cd5-af4369fb4786"
        },
        "payor": [
          {
            "reference": "Organization/8f2788f0-4dbe-4402-a039-ad698bc50ff5"
          }
        ]
      },
      "request": {
        "method": "PUT",
        "url": "Coverage/8e4bec6c-95d2-402c-a875-9aa167aaedbe"
      }
    },
    {
      "fullUrl": "https://madie.cms.gov/Organization/8f2788f0-4dbe-4402-a039-ad698bc50ff5",
      "resource": {
        "resourceType": "Organization",
        "id": "8f2788f0-4dbe-4402-a039-ad698bc50ff5",
        "meta": {
          "profile": [
            "http://hl7.org/fhir/us/qicore/StructureDefinition/qicore-organization"
          ]
        },
        "identifier": [
          {
            "use": "temp",
            "system": "urn:oid:2.16.840.1.113883.4.4",
            "value": "21-3259825"
          }
        ],
        "active": true,
        "type": [
          {
            "coding": [
              {
                "system": "http://terminology.hl7.org/CodeSystem/organization-type",
                "code": "pay",
                "display": "Payer"
              }
            ]
          }
        ],
        "name": "Blue Cross Blue Shield of Texas",
        "telecom": [
          {
            "system": "phone",
            "value": "(+1) 972-766-6900"
          }
        ],
        "address": [
          {
            "use": "billing",
            "type": "postal",
            "line": [
              "P.O. Box 660044"
            ],
            "city": "Dallas",
            "state": "TX",
            "postalCode": "75266-0044",
            "country": "USA"
          }
        ]
      },
      "request": {
        "method": "PUT",
        "url": "Organization/8f2788f0-4dbe-4402-a039-ad698bc50ff5"
      }
    },
    {
      "fullUrl": "https://madie.cms.gov/MeasureReport/5b8ed0a8-77fa-4d24-93b9-8f77572e3fe9",
      "resource": {
        "resourceType": "MeasureReport",
        "id": "5b8ed0a8-77fa-4d24-93b9-8f77572e3fe9",
        "meta": {
          "profile": [
            "http://hl7.org/fhir/us/cqfmeasures/StructureDefinition/test-case-cqfm"
          ]
        },
        "contained": [
          {
            "resourceType": "Parameters",
            "id": "ae2f67fd-6cfa-46ef-a670-413cdfb8f5bb-parameters",
            "parameter": [
              {
                "name": "subject",
                "valueString": "ff523a7d-41ea-455f-8cd5-af4369fb4786"
              }
            ]
          }
        ],
        "extension": [
          {
            "url": "http://hl7.org/fhir/us/cqfmeasures/StructureDefinition/cqfm-inputParameters",
            "valueReference": {
              "reference": "#ae2f67fd-6cfa-46ef-a670-413cdfb8f5bb-parameters"
            }
          },
          {
            "url": "http://hl7.org/fhir/us/cqfmeasures/StructureDefinition/cqfm-testCaseDescription",
            "valueMarkdown": "Patient is 18 with Non-Elective Inpatient Encounter (LOS 120 days) ends during MP with no principal diagnosis of stroke\n"
          }
        ],
        "modifierExtension": [
          {
            "url": "http://hl7.org/fhir/us/cqfmeasures/StructureDefinition/cqfm-isTestCase",
            "valueBoolean": true
          }
        ],
        "status": "complete",
        "type": "individual",
        "measure": "https://madie.cms.gov/Measure/DischargedonAntithromboticTherapyFHIR",
        "period": {
          "start": "2025-01-01",
          "end": "2025-12-31"
        },
        "group": [
          {
            "population": [
              {
                "code": {
                  "coding": [
                    {
                      "system": "http://terminology.hl7.org/CodeSystem/measure-population",
                      "code": "initial-population",
                      "display": "Initial Population"
                    }
                  ]
                },
                "count": 0
              },
              {
                "code": {
                  "coding": [
                    {
                      "system": "http://terminology.hl7.org/CodeSystem/measure-population",
                      "code": "denominator",
                      "display": "Denominator"
                    }
                  ]
                },
                "count": 0
              },
              {
                "code": {
                  "coding": [
                    {
                      "system": "http://terminology.hl7.org/CodeSystem/measure-population",
                      "code": "denominator-exclusion",
                      "display": "Denominator Exclusion"
                    }
                  ]
                },
                "count": 0
              },
              {
                "code": {
                  "coding": [
                    {
                      "system": "http://terminology.hl7.org/CodeSystem/measure-population",
                      "code": "numerator",
                      "display": "Numerator"
                    }
                  ]
                },
                "count": 0
              },
              {
                "code": {
                  "coding": [
                    {
                      "system": "http://terminology.hl7.org/CodeSystem/measure-population",
                      "code": "denominator-exception",
                      "display": "Denominator Exception"
                    }
                  ]
                },
                "count": 0
              }
            ]
          }
        ],
        "evaluatedResource": [
          {
            "reference": "Patient/ff523a7d-41ea-455f-8cd5-af4369fb4786"
          },
          {
            "reference": "Encounter/71f6d2c1-147f-4b8f-9c9e-a449354a9817"
          },
          {
            "reference": "Coverage/8e4bec6c-95d2-402c-a875-9aa167aaedbe"
          },
          {
            "reference": "Organization/8f2788f0-4dbe-4402-a039-ad698bc50ff5"
          }
        ]
      },
      "request": {
        "method": "PUT",
        "url": "MeasureReport/5b8ed0a8-77fa-4d24-93b9-8f77572e3fe9"
      }
    }
  ]
}