{
  "resourceType": "Bundle",
  "id": "633b3fa00968f80122503d29",
  "type": "transaction",
  "entry": [
    {
      "fullUrl": "https://madie.cms.gov/Patient/0bb61859-7f03-4eaf-87ba-ccdeba71125b",
      "resource": {
        "resourceType": "Patient",
        "id": "0bb61859-7f03-4eaf-87ba-ccdeba71125b",
        "meta": {
          "profile": [
            "http://hl7.org/fhir/us/qicore/StructureDefinition/qicore-patient"
          ]
        },
        "text": {
          "status": "generated",
          "div": "<div xmlns=\"http://www.w3.org/1999/xhtml\"><div class=\"hapiHeaderText\">DelProcRelDtTm1MinB4MidnightDayB4EncStarts <b>IPFAIL </b></div><table class=\"hapiPropertyTable\"><tbody><tr><td>Date of birth</td><td><span>31 January 2004</span></td></tr></tbody></table></div>"
        },
        "extension": [
          {
            "url": "http://hl7.org/fhir/us/core/StructureDefinition/us-core-race",
            "extension": [
              {
                "url": "ombCategory",
                "valueCoding": {
                  "system": "urn:oid:2.16.840.1.113883.6.238",
                  "code": "1002-5",
                  "display": "American Indian or Alaska Native",
                  "userSelected": true
                }
              },
              {
                "url": "text",
                "valueString": "American Indian or Alaska Native"
              }
            ]
          },
          {
            "url": "http://hl7.org/fhir/us/core/StructureDefinition/us-core-ethnicity",
            "extension": [
              {
                "url": "ombCategory",
                "valueCoding": {
                  "system": "urn:oid:2.16.840.1.113883.6.238",
                  "code": "2135-2",
                  "display": "Hispanic or Latino",
                  "userSelected": true
                }
              },
              {
                "url": "text",
                "valueString": "Hispanic or Latino"
              }
            ]
          }
        ],
        "identifier": [
          {
            "type": {
              "coding": [
                {
                  "system": "http://terminology.hl7.org/CodeSystem/v2-0203",
                  "code": "MR"
                }
              ]
            },
            "system": "https://bonnie-fhir.healthit.gov/",
            "value": "633b3fa00968f80122503d29"
          }
        ],
        "active": true,
        "name": [
          {
            "use": "usual",
            "family": "IPFail",
            "given": [
              "DelProcRelDtTm1MinB4MidnightDayB4EncStarts"
            ]
          }
        ],
        "gender": "female",
        "birthDate": "2004-01-31"
      },
      "request": {
        "method": "PUT",
        "url": "Patient/0bb61859-7f03-4eaf-87ba-ccdeba71125b"
      }
    },
    {
      "fullUrl": "https://madie.cms.gov/Encounter/a0f646cc-b44b-4826-a074-be5ed8c3e0a2",
      "resource": {
        "resourceType": "Encounter",
        "id": "a0f646cc-b44b-4826-a074-be5ed8c3e0a2",
        "meta": {
          "profile": [
            "http://hl7.org/fhir/us/qicore/StructureDefinition/qicore-encounter"
          ]
        },
        "status": "finished",
        "class": {
          "system": "http://terminology.hl7.org/CodeSystem/v3-ActCode",
          "code": "IMP",
          "display": "inpatient encounter"
        },
        "type": [
          {
            "coding": [
              {
                "system": "http://snomed.info/sct",
                "code": "183452005"
              }
            ]
          }
        ],
        "subject": {
          "reference": "Patient/0bb61859-7f03-4eaf-87ba-ccdeba71125b"
        },
        "period": {
          "start": "2024-02-01T09:00:00.000Z",
          "end": "2024-02-05T08:15:00.000Z"
        }
      },
      "request": {
        "method": "PUT",
        "url": "Encounter/a0f646cc-b44b-4826-a074-be5ed8c3e0a2"
      }
    },
    {
      "fullUrl": "https://madie.cms.gov/Procedure/f00a1d68-ecc6-4fe9-b9a0-4c3ab5784df4",
      "resource": {
        "resourceType": "Procedure",
        "id": "f00a1d68-ecc6-4fe9-b9a0-4c3ab5784df4",
        "meta": {
          "profile": [
            "http://hl7.org/fhir/us/qicore/StructureDefinition/qicore-procedure"
          ]
        },
        "extension": [
          {
            "url": "http://hl7.org/fhir/us/qicore/StructureDefinition/qicore-recorded",
            "valueDateTime": "2013-04-05T09:35:00-04:00"
          }
        ],
        "status": "completed",
        "code": {
          "coding": [
            {
              "system": "http://snomed.info/sct",
              "code": "10745001"
            }
          ]
        },
        "subject": {
          "reference": "Patient/0bb61859-7f03-4eaf-87ba-ccdeba71125b"
        },
        "performedDateTime": "2024-01-31T23:59:00.000+00:00"
      },
      "request": {
        "method": "PUT",
        "url": "Procedure/f00a1d68-ecc6-4fe9-b9a0-4c3ab5784df4"
      }
    },
    {
      "fullUrl": "https://madie.cms.gov/Coverage/ee6e5a3a-7bf6-4fbc-b164-ad099343bac5",
      "resource": {
        "resourceType": "Coverage",
        "id": "ee6e5a3a-7bf6-4fbc-b164-ad099343bac5",
        "meta": {
          "profile": [
            "http://hl7.org/fhir/us/qicore/StructureDefinition/qicore-coverage"
          ]
        },
        "status": "active",
        "beneficiary": {
          "reference": "Patient/0bb61859-7f03-4eaf-87ba-ccdeba71125b"
        },
        "payor": [
          {
            "reference": "Organization/dfc9af67-fe86-47ef-9525-2ede77226896"
          }
        ]
      },
      "request": {
        "method": "PUT",
        "url": "Coverage/ee6e5a3a-7bf6-4fbc-b164-ad099343bac5"
      }
    },
    {
      "fullUrl": "https://madie.cms.gov/Organization/dfc9af67-fe86-47ef-9525-2ede77226896",
      "resource": {
        "resourceType": "Organization",
        "id": "dfc9af67-fe86-47ef-9525-2ede77226896",
        "meta": {
          "profile": [
            "http://hl7.org/fhir/us/qicore/StructureDefinition/qicore-organization"
          ]
        },
        "identifier": [
          {
            "use": "temp",
            "system": "urn:oid:2.16.840.1.113883.4.4",
            "value": "21-3259825"
          }
        ],
        "active": true,
        "type": [
          {
            "coding": [
              {
                "system": "http://terminology.hl7.org/CodeSystem/organization-type",
                "code": "pay",
                "display": "Payer"
              }
            ]
          }
        ],
        "name": "Blue Cross Blue Shield of Texas",
        "telecom": [
          {
            "system": "phone",
            "value": "(+1) 972-766-6900"
          }
        ],
        "address": [
          {
            "use": "billing",
            "type": "postal",
            "line": [
              "P.O. Box 660044"
            ],
            "city": "Dallas",
            "state": "TX",
            "postalCode": "75266-0044",
            "country": "USA"
          }
        ]
      },
      "request": {
        "method": "PUT",
        "url": "Organization/dfc9af67-fe86-47ef-9525-2ede77226896"
      }
    },
    {
      "fullUrl": "https://madie.cms.gov/Practitioner/f85bd60c-0b86-4ab0-be04-35856dce6bde",
      "resource": {
        "resourceType": "Practitioner",
        "id": "f85bd60c-0b86-4ab0-be04-35856dce6bde",
        "identifier": [
          {
            "system": "http://hl7.org/fhir/sid/us-npi",
            "value": "123456"
          }
        ],
        "name": [
          {
            "family": "Evil",
            "prefix": [
              "Dr"
            ]
          }
        ]
      },
      "request": {
        "method": "PUT",
        "url": "Practitioner/f85bd60c-0b86-4ab0-be04-35856dce6bde"
      }
    },
    {
      "fullUrl": "https://madie.cms.gov/MeasureReport/e5dc38bf-c7b8-4a0d-8070-96adb8c6f8fc",
      "resource": {
        "resourceType": "MeasureReport",
        "id": "e5dc38bf-c7b8-4a0d-8070-96adb8c6f8fc",
        "meta": {
          "profile": [
            "http://hl7.org/fhir/us/cqfmeasures/StructureDefinition/test-case-cqfm"
          ]
        },
        "contained": [
          {
            "resourceType": "Parameters",
            "id": "d288e6a3-2a2b-4827-a0ee-174d14cac5ec-parameters",
            "parameter": [
              {
                "name": "subject",
                "valueString": "0bb61859-7f03-4eaf-87ba-ccdeba71125b"
              }
            ]
          }
        ],
        "extension": [
          {
            "url": "http://hl7.org/fhir/us/cqfmeasures/StructureDefinition/cqfm-inputParameters",
            "valueReference": {
              "reference": "#d288e6a3-2a2b-4827-a0ee-174d14cac5ec-parameters"
            }
          },
          {
            "url": "http://hl7.org/fhir/us/cqfmeasures/StructureDefinition/cqfm-testCaseDescription",
            "valueMarkdown": "Delivery Procedure rel date/time = 11:59 pm day before encounter starts.\n"
          }
        ],
        "modifierExtension": [
          {
            "url": "http://hl7.org/fhir/us/cqfmeasures/StructureDefinition/cqfm-isTestCase",
            "valueBoolean": true
          }
        ],
        "status": "complete",
        "type": "individual",
        "measure": "https://madie.cms.gov/Measure/SevereObstetricComplicationsFHIR",
        "period": {
          "start": "2024-01-01",
          "end": "2024-12-31"
        },
        "group": [
          {
            "population": [
              {
                "code": {
                  "coding": [
                    {
                      "system": "http://terminology.hl7.org/CodeSystem/measure-population",
                      "code": "initial-population",
                      "display": "Initial Population"
                    }
                  ]
                },
                "count": 0
              },
              {
                "code": {
                  "coding": [
                    {
                      "system": "http://terminology.hl7.org/CodeSystem/measure-population",
                      "code": "denominator",
                      "display": "Denominator"
                    }
                  ]
                },
                "count": 0
              },
              {
                "code": {
                  "coding": [
                    {
                      "system": "http://terminology.hl7.org/CodeSystem/measure-population",
                      "code": "denominator-exclusion",
                      "display": "Denominator Exclusion"
                    }
                  ]
                },
                "count": 0
              },
              {
                "code": {
                  "coding": [
                    {
                      "system": "http://terminology.hl7.org/CodeSystem/measure-population",
                      "code": "numerator",
                      "display": "Numerator"
                    }
                  ]
                },
                "count": 0
              }
            ]
          }
        ],
        "evaluatedResource": [
          {
            "reference": "Patient/0bb61859-7f03-4eaf-87ba-ccdeba71125b"
          },
          {
            "reference": "Encounter/a0f646cc-b44b-4826-a074-be5ed8c3e0a2"
          },
          {
            "reference": "Procedure/f00a1d68-ecc6-4fe9-b9a0-4c3ab5784df4"
          },
          {
            "reference": "Coverage/ee6e5a3a-7bf6-4fbc-b164-ad099343bac5"
          },
          {
            "reference": "Organization/dfc9af67-fe86-47ef-9525-2ede77226896"
          },
          {
            "reference": "Practitioner/f85bd60c-0b86-4ab0-be04-35856dce6bde"
          }
        ]
      },
      "request": {
        "method": "PUT",
        "url": "MeasureReport/e5dc38bf-c7b8-4a0d-8070-96adb8c6f8fc"
      }
    }
  ]
}