{
  "resourceType": "Bundle",
  "id": "MultiScreAtriskNorefAsseModDxCp",
  "type": "transaction",
  "entry": [
    {
      "fullUrl": "https://madie.cms.gov/Patient/a03a0b69-1214-4e30-a971-24bbd0af93f5",
      "resource": {
        "resourceType": "Patient",
        "id": "a03a0b69-1214-4e30-a971-24bbd0af93f5",
        "meta": {
          "profile": [
            "http://hl7.org/fhir/us/qicore/StructureDefinition/qicore-patient"
          ]
        },
        "text": {
          "status": "generated",
          "div": "<div xmlns=\"http://www.w3.org/1999/xhtml\"><div class=\"hapiHeaderText\">MultiScreAtriskNorefAsseModDxCp, , <b> </b></div><table class=\"hapiPropertyTable\"><tbody><tr><td>Identifier</td><td>MultiScreAtriskNorefAsseModDxCp</td></tr><tr><td>Date of birth</td><td><span>14 May 1950</span></td></tr></tbody></table></div>"
        },
        "extension": [
          {
            "url": "http://hl7.org/fhir/us/core/StructureDefinition/us-core-race",
            "extension": [
              {
                "url": "ombCategory",
                "valueCoding": {
                  "system": "urn:oid:2.16.840.1.113883.6.238",
                  "code": "2106-3",
                  "display": "White",
                  "userSelected": true
                }
              },
              {
                "url": "text",
                "valueString": "White"
              }
            ]
          },
          {
            "url": "http://hl7.org/fhir/us/core/StructureDefinition/us-core-ethnicity",
            "extension": [
              {
                "url": "ombCategory",
                "valueCoding": {
                  "system": "urn:oid:2.16.840.1.113883.6.238",
                  "code": "2186-5",
                  "display": "Not Hispanic or Latino",
                  "userSelected": true
                }
              },
              {
                "url": "text",
                "valueString": "Not Hispanic or Latino"
              }
            ]
          }
        ],
        "identifier": [
          {
            "type": {
              "coding": [
                {
                  "system": "http://terminology.hl7.org/CodeSystem/v2-0203",
                  "code": "MR"
                }
              ]
            },
            "system": "https://madie.cms.gov/",
            "value": "MultiScreAtriskNorefAsseModDxCp"
          }
        ],
        "active": true,
        "name": [
          {
            "use": "usual",
            "text": "MultiScreAtriskNorefAsseModDxCp",
            "family": "denompass444",
            "given": [
              "MultiScreAtriskNorefAsseModDxCpdenompass444"
            ]
          }
        ],
        "gender": "male",
        "birthDate": "1952-01-01",
        "address": [
          {
            "text": "MultiScreAtriskNorefAsseModDxCp, Screened Not at risk Assessed Severely Malnourished Diagnosed Care Plan, ID=MultiScreAtriskNorefAsseModDxCp, DOB: 14 May 1950"
          }
        ]
      },
      "request": {
        "method": "PUT",
        "url": "Patient/a03a0b69-1214-4e30-a971-24bbd0af93f5"
      }
    },
    {
      "fullUrl": "https://madie.cms.gov/Encounter/6556a41a-5983-4c58-a095-1217a385e559",
      "resource": {
        "resourceType": "Encounter",
        "id": "6556a41a-5983-4c58-a095-1217a385e559",
        "meta": {
          "profile": [
            "http://hl7.org/fhir/us/qicore/StructureDefinition/qicore-encounter"
          ]
        },
        "status": "finished",
        "class": {
          "system": "http://terminology.hl7.org/CodeSystem/v3-ActCode",
          "code": "IMP",
          "display": "inpatient encounter"
        },
        "type": [
          {
            "coding": [
              {
                "system": "http://snomed.info/sct",
                "code": "183452005"
              }
            ]
          }
        ],
        "subject": {
          "reference": "Patient/a03a0b69-1214-4e30-a971-24bbd0af93f5"
        },
        "period": {
          "start": "2026-02-01T08:00:00.000Z",
          "end": "2026-02-07T08:15:00.000Z"
        }
      },
      "request": {
        "method": "PUT",
        "url": "Encounter/6556a41a-5983-4c58-a095-1217a385e559"
      }
    },
    {
      "fullUrl": "https://madie.cms.gov/Condition/044d2019-7576-4fd4-98b8-613f54a73eb2",
      "resource": {
        "resourceType": "Condition",
        "id": "044d2019-7576-4fd4-98b8-613f54a73eb2",
        "meta": {
          "profile": [
            "http://hl7.org/fhir/us/qicore/StructureDefinition/qicore-condition"
          ]
        },
        "clinicalStatus": {
          "coding": [
            {
              "system": "http://terminology.hl7.org/CodeSystem/condition-clinical",
              "code": "active",
              "display": "Active",
              "userSelected": true
            }
          ]
        },
        "verificationStatus": {
          "coding": [
            {
              "system": "http://terminology.hl7.org/CodeSystem/condition-ver-status",
              "code": "confirmed",
              "display": "Confirmed",
              "userSelected": true
            }
          ]
        },
        "category": [
          {
            "coding": [
              {
                "system": "http://terminology.hl7.org/CodeSystem/condition-category",
                "code": "encounter-diagnosis",
                "display": "Encounter Diagnosis",
                "userSelected": true
              }
            ]
          }
        ],
        "code": {
          "coding": [
            {
              "system": "http://snomed.info/sct",
              "code": "190606006",
              "display": "Malnutrition (calorie) (disorder)",
              "userSelected": true
            }
          ]
        },
        "subject": {
          "reference": "Patient/a03a0b69-1214-4e30-a971-24bbd0af93f5"
        },
        "onsetPeriod": {
          "start": "2026-02-01T08:00:00.000+00:00"
        },
        "recordedDate": "2026-02-01T11:00:00.000+00:00"
      },
      "request": {
        "method": "PUT",
        "url": "Condition/044d2019-7576-4fd4-98b8-613f54a73eb2"
      }
    },
    {
      "fullUrl": "https://madie.cms.gov/Observation/01b89d08-f0a3-40ae-b8b5-dd19c575438a",
      "resource": {
        "resourceType": "Observation",
        "id": "01b89d08-f0a3-40ae-b8b5-dd19c575438a",
        "meta": {
          "profile": [
            "http://hl7.org/fhir/us/qicore/StructureDefinition/qicore-observation"
          ]
        },
        "status": "final",
        "category": [
          {
            "coding": [
              {
                "system": "http://terminology.hl7.org/CodeSystem/observation-category",
                "code": "survey",
                "display": "Survey"
              }
            ]
          }
        ],
        "code": {
          "coding": [
            {
              "system": "http://loinc.org",
              "code": "98967-3",
              "display": "Initial Screening NRS_2002",
              "userSelected": true
            }
          ]
        },
        "subject": {
          "reference": "Patient/a03a0b69-1214-4e30-a971-24bbd0af93f5"
        },
        "effectiveDateTime": "2026-02-01T09:00:00.000+00:00",
        "valueCodeableConcept": {
          "coding": [
            {
              "system": "http://snomed.info/sct",
              "code": "129689002",
              "display": "Normal diet (finding)",
              "userSelected": true
            }
          ]
        }
      },
      "request": {
        "method": "PUT",
        "url": "Observation/01b89d08-f0a3-40ae-b8b5-dd19c575438a"
      }
    },
    {
      "fullUrl": "https://madie.cms.gov/Observation/39969464-0db4-452d-82c4-d96ad042cad3",
      "resource": {
        "resourceType": "Observation",
        "id": "39969464-0db4-452d-82c4-d96ad042cad3",
        "meta": {
          "profile": [
            "http://hl7.org/fhir/us/qicore/StructureDefinition/qicore-observation"
          ]
        },
        "status": "final",
        "category": [
          {
            "coding": [
              {
                "system": "http://terminology.hl7.org/CodeSystem/observation-category",
                "code": "survey",
                "display": "Survey"
              }
            ]
          }
        ],
        "code": {
          "coding": [
            {
              "system": "http://loinc.org",
              "code": "75282-4",
              "display": "Comparative nutrition assessment standards panel",
              "userSelected": true
            }
          ]
        },
        "subject": {
          "reference": "Patient/a03a0b69-1214-4e30-a971-24bbd0af93f5"
        },
        "effectiveDateTime": "2026-02-01T10:00:00.000+00:00",
        "valueCodeableConcept": {
          "coding": [
            {
              "system": "http://snomed.info/sct",
              "code": "102636009",
              "display": "Malnutrition (calorie) (disorder)",
              "userSelected": true
            }
          ]
        }
      },
      "request": {
        "method": "PUT",
        "url": "Observation/39969464-0db4-452d-82c4-d96ad042cad3"
      }
    },
    {
      "fullUrl": "https://madie.cms.gov/Procedure/774298aa-025d-40cd-8c49-f84f20b6906f",
      "resource": {
        "resourceType": "Procedure",
        "id": "774298aa-025d-40cd-8c49-f84f20b6906f",
        "meta": {
          "profile": [
            "http://hl7.org/fhir/us/qicore/StructureDefinition/qicore-procedure"
          ]
        },
        "extension": [
          {
            "url": "http://hl7.org/fhir/us/qicore/StructureDefinition/qicore-recorded",
            "valueDateTime": "2026-02-01T11:30:00.000Z"
          }
        ],
        "status": "completed",
        "code": {
          "coding": [
            {
              "system": "http://snomed.info/sct",
              "code": "306354000",
              "display": "Referral to hospital-based dietitian (procedure)"
            }
          ],
          "text": "Referral to hospital-based dietitian (procedure)"
        },
        "subject": {
          "reference": "Patient/a03a0b69-1214-4e30-a971-24bbd0af93f5"
        },
        "encounter": {
          "reference": "Encounter/MultiScreAtriskNorefAsseModDxCpdenompass444"
        },
        "performedPeriod": {
          "start": "2026-02-01T11:30:00.000Z",
          "end": "2026-02-07T08:15:00.000Z"
        }
      },
      "request": {
        "method": "PUT",
        "url": "Procedure/774298aa-025d-40cd-8c49-f84f20b6906f"
      }
    },
    {
      "fullUrl": "https://madie.cms.gov/Procedure/c48a2b4d-57ab-4cc0-9649-cdcb80f243ff",
      "resource": {
        "resourceType": "Procedure",
        "id": "c48a2b4d-57ab-4cc0-9649-cdcb80f243ff",
        "meta": {
          "profile": [
            "http://hl7.org/fhir/us/qicore/StructureDefinition/qicore-procedure"
          ]
        },
        "extension": [
          {
            "url": "http://hl7.org/fhir/us/qicore/StructureDefinition/qicore-recorded",
            "valueDateTime": "2026-02-02T11:30:00.000Z"
          }
        ],
        "status": "completed",
        "code": {
          "coding": [
            {
              "system": "http://snomed.info/sct",
              "code": "386372009",
              "display": "Nutrition management (regime/therapy)"
            }
          ],
          "text": "Nutrition management (regime/therapy)"
        },
        "subject": {
          "reference": "Patient/a03a0b69-1214-4e30-a971-24bbd0af93f5"
        },
        "encounter": {
          "reference": "Encounter/MultiScreAtriskNorefAsseModDxCpdenompass444"
        },
        "performedPeriod": {
          "start": "2026-02-01T11:30:00.000Z",
          "end": "2026-02-07T08:15:00.000Z"
        }
      },
      "request": {
        "method": "PUT",
        "url": "Procedure/c48a2b4d-57ab-4cc0-9649-cdcb80f243ff"
      }
    },
    {
      "fullUrl": "https://madie.cms.gov/Coverage/409f7631-6760-443d-90ce-1c1f728c2db0",
      "resource": {
        "resourceType": "Coverage",
        "id": "409f7631-6760-443d-90ce-1c1f728c2db0",
        "meta": {
          "profile": [
            "http://hl7.org/fhir/us/qicore/StructureDefinition/qicore-coverage"
          ]
        },
        "status": "active",
        "type": {
          "coding": [
            {
              "system": "https://nahdo.org/sopt",
              "version": "9.2",
              "code": "11",
              "display": "Medicare Managed Care (Includes Medicare Advantage Plans)"
            }
          ]
        },
        "beneficiary": {
          "reference": "Patient/a03a0b69-1214-4e30-a971-24bbd0af93f5"
        },
        "period": {
          "start": "2026-10-01T00:00:00+00:00"
        },
        "payor": [
          {
            "reference": "Organization/16697d7a-ec32-4a96-9aec-62080b7cf78f"
          }
        ]
      },
      "request": {
        "method": "PUT",
        "url": "Coverage/409f7631-6760-443d-90ce-1c1f728c2db0"
      }
    },
    {
      "fullUrl": "https://madie.cms.gov/Encounter/ff0dd7eb-e14f-4594-895e-66be0b9066be",
      "resource": {
        "resourceType": "Encounter",
        "id": "ff0dd7eb-e14f-4594-895e-66be0b9066be",
        "meta": {
          "profile": [
            "http://hl7.org/fhir/us/qicore/StructureDefinition/qicore-encounter"
          ]
        },
        "status": "finished",
        "class": {
          "system": "http://terminology.hl7.org/CodeSystem/v3-ActCode",
          "code": "IMP",
          "display": "inpatient encounter"
        },
        "type": [
          {
            "coding": [
              {
                "system": "http://snomed.info/sct",
                "code": "183452005"
              }
            ]
          }
        ],
        "subject": {
          "reference": "Patient/a03a0b69-1214-4e30-a971-24bbd0af93f5"
        },
        "period": {
          "start": "2026-03-01T08:00:00.000Z",
          "end": "2026-03-07T08:15:00.000Z"
        }
      },
      "request": {
        "method": "PUT",
        "url": "Encounter/ff0dd7eb-e14f-4594-895e-66be0b9066be"
      }
    },
    {
      "fullUrl": "https://madie.cms.gov/Condition/abce03cc-7e92-4703-a001-807bddfbdd5a",
      "resource": {
        "resourceType": "Condition",
        "id": "abce03cc-7e92-4703-a001-807bddfbdd5a",
        "meta": {
          "profile": [
            "http://hl7.org/fhir/us/qicore/StructureDefinition/qicore-condition"
          ]
        },
        "clinicalStatus": {
          "coding": [
            {
              "system": "http://terminology.hl7.org/CodeSystem/condition-clinical",
              "code": "active",
              "display": "Active",
              "userSelected": true
            }
          ]
        },
        "verificationStatus": {
          "coding": [
            {
              "system": "http://terminology.hl7.org/CodeSystem/condition-ver-status",
              "code": "confirmed",
              "display": "Confirmed",
              "userSelected": true
            }
          ]
        },
        "category": [
          {
            "coding": [
              {
                "system": "http://terminology.hl7.org/CodeSystem/condition-category",
                "code": "encounter-diagnosis",
                "display": "Encounter Diagnosis",
                "userSelected": true
              }
            ]
          }
        ],
        "code": {
          "coding": [
            {
              "system": "http://snomed.info/sct",
              "code": "272588001",
              "display": "Malnutrition (calorie) (disorder)",
              "userSelected": true
            }
          ]
        },
        "subject": {
          "reference": "Patient/a03a0b69-1214-4e30-a971-24bbd0af93f5"
        },
        "onsetPeriod": {
          "start": "2026-03-01T08:00:00.000+00:00"
        },
        "recordedDate": "2026-03-01T11:00:00.000+00:00"
      },
      "request": {
        "method": "PUT",
        "url": "Condition/abce03cc-7e92-4703-a001-807bddfbdd5a"
      }
    },
    {
      "fullUrl": "https://madie.cms.gov/Observation/3bb7a196-824e-4b48-a749-68ec43dac710",
      "resource": {
        "resourceType": "Observation",
        "id": "3bb7a196-824e-4b48-a749-68ec43dac710",
        "meta": {
          "profile": [
            "http://hl7.org/fhir/us/qicore/StructureDefinition/qicore-observation"
          ]
        },
        "status": "final",
        "category": [
          {
            "coding": [
              {
                "system": "http://terminology.hl7.org/CodeSystem/observation-category",
                "code": "survey",
                "display": "Survey"
              }
            ]
          }
        ],
        "code": {
          "coding": [
            {
              "system": "http://loinc.org",
              "code": "98968-1",
              "display": "Initial Screening NRS_2002",
              "userSelected": true
            }
          ]
        },
        "subject": {
          "reference": "Patient/a03a0b69-1214-4e30-a971-24bbd0af93f5"
        },
        "effectiveDateTime": "2026-03-01T09:00:00.000+00:00",
        "valueCodeableConcept": {
          "coding": [
            {
              "system": "http://snomed.info/sct",
              "code": "36823005",
              "display": "Normal diet (finding)",
              "userSelected": true
            }
          ]
        }
      },
      "request": {
        "method": "PUT",
        "url": "Observation/3bb7a196-824e-4b48-a749-68ec43dac710"
      }
    },
    {
      "fullUrl": "https://madie.cms.gov/Observation/e18135af-588b-42bd-a0e0-93f018110fea",
      "resource": {
        "resourceType": "Observation",
        "id": "e18135af-588b-42bd-a0e0-93f018110fea",
        "meta": {
          "profile": [
            "http://hl7.org/fhir/us/qicore/StructureDefinition/qicore-observation"
          ]
        },
        "status": "final",
        "category": [
          {
            "coding": [
              {
                "system": "http://terminology.hl7.org/CodeSystem/observation-category",
                "code": "survey",
                "display": "Survey"
              }
            ]
          }
        ],
        "code": {
          "coding": [
            {
              "system": "http://loinc.org",
              "code": "75285-7",
              "display": "Comparative nutrition assessment standards panel",
              "userSelected": true
            }
          ]
        },
        "subject": {
          "reference": "Patient/a03a0b69-1214-4e30-a971-24bbd0af93f5"
        },
        "effectiveDateTime": "2026-03-01T10:00:00.000+00:00",
        "valueCodeableConcept": {
          "coding": [
            {
              "system": "http://snomed.info/sct",
              "code": "272588001",
              "display": "Malnutrition (calorie) (disorder)",
              "userSelected": true
            }
          ]
        }
      },
      "request": {
        "method": "PUT",
        "url": "Observation/e18135af-588b-42bd-a0e0-93f018110fea"
      }
    },
    {
      "fullUrl": "https://madie.cms.gov/Procedure/bde729bc-603a-4baf-a61f-94ee1600a66f",
      "resource": {
        "resourceType": "Procedure",
        "id": "bde729bc-603a-4baf-a61f-94ee1600a66f",
        "meta": {
          "profile": [
            "http://hl7.org/fhir/us/qicore/StructureDefinition/qicore-procedure"
          ]
        },
        "extension": [
          {
            "url": "http://hl7.org/fhir/us/qicore/StructureDefinition/qicore-recorded",
            "valueDateTime": "2026-03-01T11:30:00.000Z"
          }
        ],
        "status": "completed",
        "code": {
          "coding": [
            {
              "system": "http://snomed.info/sct",
              "code": "306354000",
              "display": "Referral to hospital-based dietitian (procedure)"
            }
          ],
          "text": "Referral to hospital-based dietitian (procedure)"
        },
        "subject": {
          "reference": "Patient/a03a0b69-1214-4e30-a971-24bbd0af93f5"
        },
        "encounter": {
          "reference": "Encounter/MultiScreAtriskNorefAsseModDxCpdenompass444"
        },
        "performedPeriod": {
          "start": "2026-03-01T11:30:00.000Z",
          "end": "2026-03-07T08:15:00.000Z"
        }
      },
      "request": {
        "method": "PUT",
        "url": "Procedure/bde729bc-603a-4baf-a61f-94ee1600a66f"
      }
    },
    {
      "fullUrl": "https://madie.cms.gov/Procedure/2e9b1f40-018b-498c-ae66-8e6016aa61d6",
      "resource": {
        "resourceType": "Procedure",
        "id": "2e9b1f40-018b-498c-ae66-8e6016aa61d6",
        "meta": {
          "profile": [
            "http://hl7.org/fhir/us/qicore/StructureDefinition/qicore-procedure"
          ]
        },
        "extension": [
          {
            "url": "http://hl7.org/fhir/us/qicore/StructureDefinition/qicore-recorded",
            "valueDateTime": "2026-03-02T11:30:00.000Z"
          }
        ],
        "status": "completed",
        "code": {
          "coding": [
            {
              "system": "http://snomed.info/sct",
              "code": "386372009",
              "display": "Nutrition management (regime/therapy)"
            }
          ],
          "text": "Nutrition management (regime/therapy)"
        },
        "subject": {
          "reference": "Patient/a03a0b69-1214-4e30-a971-24bbd0af93f5"
        },
        "encounter": {
          "reference": "Encounter/MultiScreAtriskNorefAsseModDxCpdenompass444"
        },
        "performedPeriod": {
          "start": "2026-03-01T11:30:00.000Z",
          "end": "2026-03-07T08:15:00.000Z"
        }
      },
      "request": {
        "method": "PUT",
        "url": "Procedure/2e9b1f40-018b-498c-ae66-8e6016aa61d6"
      }
    },
    {
      "fullUrl": "https://madie.cms.gov/Encounter/58befd96-a5a3-4a4e-85ed-10dcfa30ef00",
      "resource": {
        "resourceType": "Encounter",
        "id": "58befd96-a5a3-4a4e-85ed-10dcfa30ef00",
        "meta": {
          "profile": [
            "http://hl7.org/fhir/us/qicore/StructureDefinition/qicore-encounter"
          ]
        },
        "status": "finished",
        "class": {
          "system": "http://terminology.hl7.org/CodeSystem/v3-ActCode",
          "code": "IMP",
          "display": "inpatient encounter"
        },
        "type": [
          {
            "coding": [
              {
                "system": "http://snomed.info/sct",
                "code": "183452005"
              }
            ]
          }
        ],
        "subject": {
          "reference": "Patient/a03a0b69-1214-4e30-a971-24bbd0af93f5"
        },
        "period": {
          "start": "2026-04-01T08:00:00.000Z",
          "end": "2026-04-07T08:15:00.000Z"
        }
      },
      "request": {
        "method": "PUT",
        "url": "Encounter/58befd96-a5a3-4a4e-85ed-10dcfa30ef00"
      }
    },
    {
      "fullUrl": "https://madie.cms.gov/Condition/c222cc43-5154-4cc8-b4b1-82c476a83688",
      "resource": {
        "resourceType": "Condition",
        "id": "c222cc43-5154-4cc8-b4b1-82c476a83688",
        "meta": {
          "profile": [
            "http://hl7.org/fhir/us/qicore/StructureDefinition/qicore-condition"
          ]
        },
        "clinicalStatus": {
          "coding": [
            {
              "system": "http://terminology.hl7.org/CodeSystem/condition-clinical",
              "code": "active",
              "display": "Active",
              "userSelected": true
            }
          ]
        },
        "verificationStatus": {
          "coding": [
            {
              "system": "http://terminology.hl7.org/CodeSystem/condition-ver-status",
              "code": "confirmed",
              "display": "Confirmed",
              "userSelected": true
            }
          ]
        },
        "category": [
          {
            "coding": [
              {
                "system": "http://terminology.hl7.org/CodeSystem/condition-category",
                "code": "encounter-diagnosis",
                "display": "Encounter Diagnosis",
                "userSelected": true
              }
            ]
          }
        ],
        "code": {
          "coding": [
            {
              "system": "http://snomed.info/sct",
              "code": "272588001",
              "display": "Malnutrition (calorie) (disorder)",
              "userSelected": true
            }
          ]
        },
        "subject": {
          "reference": "Patient/a03a0b69-1214-4e30-a971-24bbd0af93f5"
        },
        "onsetPeriod": {
          "start": "2026-04-01T08:00:00.000+00:00"
        },
        "recordedDate": "2026-04-01T11:00:00.000+00:00"
      },
      "request": {
        "method": "PUT",
        "url": "Condition/c222cc43-5154-4cc8-b4b1-82c476a83688"
      }
    },
    {
      "fullUrl": "https://madie.cms.gov/Observation/e4c84b49-9332-4875-a133-d70b202f0ab4",
      "resource": {
        "resourceType": "Observation",
        "id": "e4c84b49-9332-4875-a133-d70b202f0ab4",
        "meta": {
          "profile": [
            "http://hl7.org/fhir/us/qicore/StructureDefinition/qicore-observation"
          ]
        },
        "status": "final",
        "category": [
          {
            "coding": [
              {
                "system": "http://terminology.hl7.org/CodeSystem/observation-category",
                "code": "survey",
                "display": "Survey"
              }
            ]
          }
        ],
        "code": {
          "coding": [
            {
              "system": "http://loinc.org",
              "code": "98968-1",
              "display": "Initial Screening NRS_2002",
              "userSelected": true
            }
          ]
        },
        "subject": {
          "reference": "Patient/a03a0b69-1214-4e30-a971-24bbd0af93f5"
        },
        "effectiveDateTime": "2026-02-01T09:00:00.000+00:00",
        "valueCodeableConcept": {
          "coding": [
            {
              "system": "http://snomed.info/sct",
              "code": "36823005",
              "display": "Normal diet (finding)",
              "userSelected": true
            }
          ]
        }
      },
      "request": {
        "method": "PUT",
        "url": "Observation/e4c84b49-9332-4875-a133-d70b202f0ab4"
      }
    },
    {
      "fullUrl": "https://madie.cms.gov/Observation/2c838895-98e1-472b-964d-428cae1c1b68",
      "resource": {
        "resourceType": "Observation",
        "id": "2c838895-98e1-472b-964d-428cae1c1b68",
        "meta": {
          "profile": [
            "http://hl7.org/fhir/us/qicore/StructureDefinition/qicore-observation"
          ]
        },
        "status": "final",
        "category": [
          {
            "coding": [
              {
                "system": "http://terminology.hl7.org/CodeSystem/observation-category",
                "code": "survey",
                "display": "Survey"
              }
            ]
          }
        ],
        "code": {
          "coding": [
            {
              "system": "http://loinc.org",
              "code": "75285-7",
              "display": "Comparative nutrition assessment standards panel",
              "userSelected": true
            }
          ]
        },
        "subject": {
          "reference": "Patient/a03a0b69-1214-4e30-a971-24bbd0af93f5"
        },
        "effectiveDateTime": "2026-04-01T10:00:00.000+00:00",
        "valueCodeableConcept": {
          "coding": [
            {
              "system": "http://snomed.info/sct",
              "code": "272588001",
              "display": "Malnutrition (calorie) (disorder)",
              "userSelected": true
            }
          ]
        }
      },
      "request": {
        "method": "PUT",
        "url": "Observation/2c838895-98e1-472b-964d-428cae1c1b68"
      }
    },
    {
      "fullUrl": "https://madie.cms.gov/Procedure/34709fc8-5ab4-4685-aed4-d9bf1e248efb",
      "resource": {
        "resourceType": "Procedure",
        "id": "34709fc8-5ab4-4685-aed4-d9bf1e248efb",
        "meta": {
          "profile": [
            "http://hl7.org/fhir/us/qicore/StructureDefinition/qicore-procedure"
          ]
        },
        "extension": [
          {
            "url": "http://hl7.org/fhir/us/qicore/StructureDefinition/qicore-recorded",
            "valueDateTime": "2026-04-01T11:30:00.000Z"
          }
        ],
        "status": "completed",
        "code": {
          "coding": [
            {
              "system": "http://snomed.info/sct",
              "code": "306354000",
              "display": "Referral to hospital-based dietitian (procedure)"
            }
          ],
          "text": "Referral to hospital-based dietitian (procedure)"
        },
        "subject": {
          "reference": "Patient/a03a0b69-1214-4e30-a971-24bbd0af93f5"
        },
        "encounter": {
          "reference": "Encounter/MultiScreAtriskNorefAsseModDxCpdenompass444"
        },
        "performedPeriod": {
          "start": "2026-04-01T11:30:00.000Z",
          "end": "2026-04-07T08:15:00.000Z"
        }
      },
      "request": {
        "method": "PUT",
        "url": "Procedure/34709fc8-5ab4-4685-aed4-d9bf1e248efb"
      }
    },
    {
      "fullUrl": "https://madie.cms.gov/Procedure/c3e8eb42-63a9-4a6d-b6ed-a8f3caf3bb36",
      "resource": {
        "resourceType": "Procedure",
        "id": "c3e8eb42-63a9-4a6d-b6ed-a8f3caf3bb36",
        "meta": {
          "profile": [
            "http://hl7.org/fhir/us/qicore/StructureDefinition/qicore-procedure"
          ]
        },
        "extension": [
          {
            "url": "http://hl7.org/fhir/us/qicore/StructureDefinition/qicore-recorded",
            "valueDateTime": "2026-04-02T11:30:00.000Z"
          }
        ],
        "status": "completed",
        "code": {
          "coding": [
            {
              "system": "http://snomed.info/sct",
              "code": "386372009",
              "display": "Nutrition management (regime/therapy)"
            }
          ],
          "text": "Nutrition management (regime/therapy)"
        },
        "subject": {
          "reference": "Patient/a03a0b69-1214-4e30-a971-24bbd0af93f5"
        },
        "encounter": {
          "reference": "Encounter/MultiScreAtriskNorefAsseModDxCpdenompass444"
        },
        "performedPeriod": {
          "start": "2026-04-01T11:30:00.000Z",
          "end": "2026-04-07T08:15:00.000Z"
        }
      },
      "request": {
        "method": "PUT",
        "url": "Procedure/c3e8eb42-63a9-4a6d-b6ed-a8f3caf3bb36"
      }
    },
    {
      "fullUrl": "https://madie.cms.gov/Coverage/9f0d9e03-a613-459e-b16c-34f71b8ee3f1",
      "resource": {
        "resourceType": "Coverage",
        "id": "9f0d9e03-a613-459e-b16c-34f71b8ee3f1",
        "meta": {
          "profile": [
            "http://hl7.org/fhir/us/qicore/StructureDefinition/qicore-coverage"
          ]
        },
        "status": "active",
        "type": {
          "coding": [
            {
              "system": "https://nahdo.org/sopt",
              "version": "9.2",
              "code": "11",
              "display": "Medicare Managed Care (Includes Medicare Advantage Plans)"
            }
          ]
        },
        "beneficiary": {
          "reference": "Patient/a03a0b69-1214-4e30-a971-24bbd0af93f5"
        },
        "period": {
          "start": "2026-10-01T00:00:00+00:00"
        },
        "payor": [
          {
            "reference": "Organization/16697d7a-ec32-4a96-9aec-62080b7cf78f"
          }
        ]
      },
      "request": {
        "method": "PUT",
        "url": "Coverage/9f0d9e03-a613-459e-b16c-34f71b8ee3f1"
      }
    },
    {
      "fullUrl": "https://madie.cms.gov/Organization/16697d7a-ec32-4a96-9aec-62080b7cf78f",
      "resource": {
        "resourceType": "Organization",
        "id": "16697d7a-ec32-4a96-9aec-62080b7cf78f",
        "meta": {
          "profile": [
            "http://hl7.org/fhir/us/qicore/StructureDefinition/qicore-organization"
          ]
        },
        "identifier": [
          {
            "use": "temp",
            "system": "urn:oid:2.16.840.1.113883.4.4",
            "value": "21-3259825"
          }
        ],
        "active": true,
        "type": [
          {
            "coding": [
              {
                "system": "http://terminology.hl7.org/CodeSystem/organization-type",
                "code": "pay",
                "display": "Payer"
              }
            ]
          }
        ],
        "name": "Blue Cross Blue Shield of Texas",
        "telecom": [
          {
            "system": "phone",
            "value": "(+1) 972-766-6900"
          }
        ],
        "address": [
          {
            "use": "billing",
            "type": "postal",
            "line": [
              "P.O. Box 660044"
            ],
            "city": "Dallas",
            "state": "TX",
            "postalCode": "75266-0044",
            "country": "USA"
          }
        ]
      },
      "request": {
        "method": "PUT",
        "url": "Organization/16697d7a-ec32-4a96-9aec-62080b7cf78f"
      }
    },
    {
      "fullUrl": "https://madie.cms.gov/MeasureReport/05467ff0-f2d1-4601-be89-57ee6d3bd4fa",
      "resource": {
        "resourceType": "MeasureReport",
        "id": "05467ff0-f2d1-4601-be89-57ee6d3bd4fa",
        "meta": {
          "profile": [
            "http://hl7.org/fhir/us/cqfmeasures/StructureDefinition/test-case-cqfm"
          ]
        },
        "contained": [
          {
            "resourceType": "Parameters",
            "id": "feef0f3b-cd77-4228-84a3-a8bcdb3a4a86-parameters",
            "parameter": [
              {
                "name": "subject",
                "valueString": "a03a0b69-1214-4e30-a971-24bbd0af93f5"
              }
            ]
          }
        ],
        "extension": [
          {
            "url": "http://hl7.org/fhir/us/cqfmeasures/StructureDefinition/cqfm-inputParameters",
            "valueReference": {
              "reference": "#feef0f3b-cd77-4228-84a3-a8bcdb3a4a86-parameters"
            }
          },
          {
            "url": "http://hl7.org/fhir/us/cqfmeasures/StructureDefinition/cqfm-testCaseDescription",
            "valueMarkdown": "3 Encounters, all components met in each"
          }
        ],
        "modifierExtension": [
          {
            "url": "http://hl7.org/fhir/us/cqfmeasures/StructureDefinition/cqfm-isTestCase",
            "valueBoolean": true
          }
        ],
        "status": "complete",
        "type": "individual",
        "measure": "https://madie.cms.gov/Measure/GlobalMalnutritionCompositeFHIR",
        "period": {
          "start": "2026-01-01",
          "end": "2026-12-31"
        },
        "group": [
          {
            "population": [
              {
                "code": {
                  "coding": [
                    {
                      "system": "http://terminology.hl7.org/CodeSystem/measure-population",
                      "code": "initial-population",
                      "display": "Initial Population"
                    }
                  ]
                },
                "count": 3
              },
              {
                "code": {
                  "coding": [
                    {
                      "system": "http://terminology.hl7.org/CodeSystem/measure-population",
                      "code": "measure-population",
                      "display": "Measure Population"
                    }
                  ]
                },
                "count": 3
              },
              {
                "code": {
                  "coding": [
                    {
                      "system": "http://terminology.hl7.org/CodeSystem/measure-population",
                      "code": "measure-population-observation",
                      "display": "Measure Population Observation"
                    }
                  ]
                },
                "count": 1
              },
              {
                "code": {
                  "coding": [
                    {
                      "system": "http://terminology.hl7.org/CodeSystem/measure-population",
                      "code": "measure-population-observation",
                      "display": "Measure Population Observation"
                    }
                  ]
                },
                "count": 1
              },
              {
                "code": {
                  "coding": [
                    {
                      "system": "http://terminology.hl7.org/CodeSystem/measure-population",
                      "code": "measure-population-observation",
                      "display": "Measure Population Observation"
                    }
                  ]
                },
                "count": 1
              }
            ]
          },
          {
            "population": [
              {
                "code": {
                  "coding": [
                    {
                      "system": "http://terminology.hl7.org/CodeSystem/measure-population",
                      "code": "initial-population",
                      "display": "Initial Population"
                    }
                  ]
                },
                "count": 3
              },
              {
                "code": {
                  "coding": [
                    {
                      "system": "http://terminology.hl7.org/CodeSystem/measure-population",
                      "code": "measure-population",
                      "display": "Measure Population"
                    }
                  ]
                },
                "count": 3
              },
              {
                "code": {
                  "coding": [
                    {
                      "system": "http://terminology.hl7.org/CodeSystem/measure-population",
                      "code": "measure-population-observation",
                      "display": "Measure Population Observation"
                    }
                  ]
                },
                "count": 1
              },
              {
                "code": {
                  "coding": [
                    {
                      "system": "http://terminology.hl7.org/CodeSystem/measure-population",
                      "code": "measure-population-observation",
                      "display": "Measure Population Observation"
                    }
                  ]
                },
                "count": 1
              },
              {
                "code": {
                  "coding": [
                    {
                      "system": "http://terminology.hl7.org/CodeSystem/measure-population",
                      "code": "measure-population-observation",
                      "display": "Measure Population Observation"
                    }
                  ]
                },
                "count": 1
              }
            ]
          },
          {
            "population": [
              {
                "code": {
                  "coding": [
                    {
                      "system": "http://terminology.hl7.org/CodeSystem/measure-population",
                      "code": "initial-population",
                      "display": "Initial Population"
                    }
                  ]
                },
                "count": 3
              },
              {
                "code": {
                  "coding": [
                    {
                      "system": "http://terminology.hl7.org/CodeSystem/measure-population",
                      "code": "measure-population",
                      "display": "Measure Population"
                    }
                  ]
                },
                "count": 3
              },
              {
                "code": {
                  "coding": [
                    {
                      "system": "http://terminology.hl7.org/CodeSystem/measure-population",
                      "code": "measure-population-observation",
                      "display": "Measure Population Observation"
                    }
                  ]
                },
                "count": 1
              },
              {
                "code": {
                  "coding": [
                    {
                      "system": "http://terminology.hl7.org/CodeSystem/measure-population",
                      "code": "measure-population-observation",
                      "display": "Measure Population Observation"
                    }
                  ]
                },
                "count": 1
              },
              {
                "code": {
                  "coding": [
                    {
                      "system": "http://terminology.hl7.org/CodeSystem/measure-population",
                      "code": "measure-population-observation",
                      "display": "Measure Population Observation"
                    }
                  ]
                },
                "count": 1
              }
            ]
          },
          {
            "population": [
              {
                "code": {
                  "coding": [
                    {
                      "system": "http://terminology.hl7.org/CodeSystem/measure-population",
                      "code": "initial-population",
                      "display": "Initial Population"
                    }
                  ]
                },
                "count": 3
              },
              {
                "code": {
                  "coding": [
                    {
                      "system": "http://terminology.hl7.org/CodeSystem/measure-population",
                      "code": "measure-population",
                      "display": "Measure Population"
                    }
                  ]
                },
                "count": 3
              },
              {
                "code": {
                  "coding": [
                    {
                      "system": "http://terminology.hl7.org/CodeSystem/measure-population",
                      "code": "measure-population-observation",
                      "display": "Measure Population Observation"
                    }
                  ]
                },
                "count": 1
              },
              {
                "code": {
                  "coding": [
                    {
                      "system": "http://terminology.hl7.org/CodeSystem/measure-population",
                      "code": "measure-population-observation",
                      "display": "Measure Population Observation"
                    }
                  ]
                },
                "count": 1
              },
              {
                "code": {
                  "coding": [
                    {
                      "system": "http://terminology.hl7.org/CodeSystem/measure-population",
                      "code": "measure-population-observation",
                      "display": "Measure Population Observation"
                    }
                  ]
                },
                "count": 1
              }
            ]
          },
          {
            "population": [
              {
                "code": {
                  "coding": [
                    {
                      "system": "http://terminology.hl7.org/CodeSystem/measure-population",
                      "code": "initial-population",
                      "display": "Initial Population"
                    }
                  ]
                },
                "count": 3
              },
              {
                "code": {
                  "coding": [
                    {
                      "system": "http://terminology.hl7.org/CodeSystem/measure-population",
                      "code": "measure-population",
                      "display": "Measure Population"
                    }
                  ]
                },
                "count": 3
              },
              {
                "code": {
                  "coding": [
                    {
                      "system": "http://terminology.hl7.org/CodeSystem/measure-population",
                      "code": "measure-population-observation",
                      "display": "Measure Population Observation"
                    }
                  ]
                },
                "count": 4
              },
              {
                "code": {
                  "coding": [
                    {
                      "system": "http://terminology.hl7.org/CodeSystem/measure-population",
                      "code": "measure-population-observation",
                      "display": "Measure Population Observation"
                    }
                  ]
                },
                "count": 4
              },
              {
                "code": {
                  "coding": [
                    {
                      "system": "http://terminology.hl7.org/CodeSystem/measure-population",
                      "code": "measure-population-observation",
                      "display": "Measure Population Observation"
                    }
                  ]
                },
                "count": 4
              }
            ]
          },
          {
            "population": [
              {
                "code": {
                  "coding": [
                    {
                      "system": "http://terminology.hl7.org/CodeSystem/measure-population",
                      "code": "initial-population",
                      "display": "Initial Population"
                    }
                  ]
                },
                "count": 3
              },
              {
                "code": {
                  "coding": [
                    {
                      "system": "http://terminology.hl7.org/CodeSystem/measure-population",
                      "code": "measure-population",
                      "display": "Measure Population"
                    }
                  ]
                },
                "count": 3
              },
              {
                "code": {
                  "coding": [
                    {
                      "system": "http://terminology.hl7.org/CodeSystem/measure-population",
                      "code": "measure-population-observation",
                      "display": "Measure Population Observation"
                    }
                  ]
                },
                "count": 100
              },
              {
                "code": {
                  "coding": [
                    {
                      "system": "http://terminology.hl7.org/CodeSystem/measure-population",
                      "code": "measure-population-observation",
                      "display": "Measure Population Observation"
                    }
                  ]
                },
                "count": 100
              },
              {
                "code": {
                  "coding": [
                    {
                      "system": "http://terminology.hl7.org/CodeSystem/measure-population",
                      "code": "measure-population-observation",
                      "display": "Measure Population Observation"
                    }
                  ]
                },
                "count": 100
              }
            ]
          }
        ],
        "evaluatedResource": [
          {
            "reference": "Patient/a03a0b69-1214-4e30-a971-24bbd0af93f5"
          },
          {
            "reference": "Encounter/6556a41a-5983-4c58-a095-1217a385e559"
          },
          {
            "reference": "Condition/044d2019-7576-4fd4-98b8-613f54a73eb2"
          },
          {
            "reference": "Observation/01b89d08-f0a3-40ae-b8b5-dd19c575438a"
          },
          {
            "reference": "Observation/39969464-0db4-452d-82c4-d96ad042cad3"
          },
          {
            "reference": "Procedure/774298aa-025d-40cd-8c49-f84f20b6906f"
          },
          {
            "reference": "Procedure/c48a2b4d-57ab-4cc0-9649-cdcb80f243ff"
          },
          {
            "reference": "Coverage/409f7631-6760-443d-90ce-1c1f728c2db0"
          },
          {
            "reference": "Encounter/ff0dd7eb-e14f-4594-895e-66be0b9066be"
          },
          {
            "reference": "Condition/abce03cc-7e92-4703-a001-807bddfbdd5a"
          },
          {
            "reference": "Observation/3bb7a196-824e-4b48-a749-68ec43dac710"
          },
          {
            "reference": "Observation/e18135af-588b-42bd-a0e0-93f018110fea"
          },
          {
            "reference": "Procedure/bde729bc-603a-4baf-a61f-94ee1600a66f"
          },
          {
            "reference": "Procedure/2e9b1f40-018b-498c-ae66-8e6016aa61d6"
          },
          {
            "reference": "Encounter/58befd96-a5a3-4a4e-85ed-10dcfa30ef00"
          },
          {
            "reference": "Condition/c222cc43-5154-4cc8-b4b1-82c476a83688"
          },
          {
            "reference": "Observation/e4c84b49-9332-4875-a133-d70b202f0ab4"
          },
          {
            "reference": "Observation/2c838895-98e1-472b-964d-428cae1c1b68"
          },
          {
            "reference": "Procedure/34709fc8-5ab4-4685-aed4-d9bf1e248efb"
          },
          {
            "reference": "Procedure/c3e8eb42-63a9-4a6d-b6ed-a8f3caf3bb36"
          },
          {
            "reference": "Coverage/9f0d9e03-a613-459e-b16c-34f71b8ee3f1"
          },
          {
            "reference": "Organization/16697d7a-ec32-4a96-9aec-62080b7cf78f"
          }
        ]
      },
      "request": {
        "method": "PUT",
        "url": "MeasureReport/05467ff0-f2d1-4601-be89-57ee6d3bd4fa"
      }
    }
  ]
}