{
  "resourceType": "Library",
  "id": "Manifest-Final-Draft",
  "meta": {
    "profile": [ "http://hl7.org/fhir/uv/crmi/StructureDefinition/crmi-manifestlibrary" ]
  },
  "contained": [ {
    "resourceType": "Parameters",
    "id": "exp-params",
    "parameter": [ {
        "name": "system-version",
        "valueUri": "http://snomed.info/sct|http://snomed.info/sct/731000124108/version/20230901"
      }, {
        "name": "system-version",
        "valueUri": "http://loinc.org|2.76"
      }, {
        "name": "system-version",
        "valueUri": "http://terminology.hl7.org/CodeSystem/v3-ActCode|9.0.0"
      }, {
        "name": "system-version",
        "valueUri": "http://terminology.hl7.org/CodeSystem/v3-AdministrativeGender|3.0.0"
      }, {
        "name": "system-version",
        "valueUri": "http://terminology.hl7.org/CodeSystem/CD2|2.0.1"
      }, {
        "name": "system-version",
        "valueUri": "urn:oid:2.16.840.1.113883.6.238|1.2"
      }, {
        "name": "system-version",
        "valueUri": "http://www.ama-assn.org/go/cpt|3.0.1"
      }, {
        "name": "system-version",
        "valueUri": "http://hl7.org/fhir/sid/cvx|4.0.0"
      }, {
        "name": "system-version",
        "valueUri": "http://terminology.hl7.org/CodeSystem/HCPCS-all-codes|3.0.0"
      }, {
        "name": "system-version",
        "valueUri": "http://www.cms.gov/Medicare/Coding/HCPCSReleaseCodeSets|1.0.2"
      }, {
        "name": "system-version",
        "valueUri": "http://hl7.org/fhir/sid/icd-10-cm|2.0.1"
      }, {
        "name": "system-version",
        "valueUri": "http://www.cms.gov/Medicare/Coding/ICD10|2.0.1"
      }, {
        "name": "system-version",
        "valueUri": "http://terminology.hl7.org/CodeSystem/icd9cm|2.0.1"
      }, {
        "name": "system-version",
        "valueUri": "http://terminology.hl7.org/CodeSystem/v2-0895|2.2.0"
      }, {
        "name": "system-version",
        "valueUri": "http://www.nlm.nih.gov/research/umls/rxnorm|3.0.1"
      }, {
        "name": "system-version",
        "valueUri": "https://nahdo.org/sopt|1.0.1"
      } ]
    }, {
      "resourceType": "Parameters",
      "id" : "endpoints",
      "parameter" : [{
        "name": "artifactEndpointConfiguration",
        "part": [{
          "name" : "artifactRoute",
          "valueUri" : "http://cts.nlm.nih.gov/fhir/ValueSet/2.16.840.1.113883.3.464.1003.1167|20220820"
        }, {
          "name" : "endpointUri",
          "valueUri" : "https://example.org/fhir/"
        }]
      }, {
        "name": "artifactEndpointConfiguration",
        "part": [{
          "name" : "artifactRoute",
          "valueUri" : "http://cts.nlm.nih.gov/fhir/"
        }, {
          "name" : "endpointUri",
          "valueUri" : "https://uat-cts.nlm.nih.gov/fhir/"
        }]
      }, {
        "name": "artifactEndpointConfiguration",
        "part": [{
          "name" : "artifactRoute",
          "valueUri" : "http://terminology.hl7.org/"
        }, {
          "name" : "endpointUri",
          "valueUri" : "https://tx.fhir.org/r4/"
        }]
      }, {
        "name": "artifactEndpointConfiguration",
        "part": [{
          "name" : "artifactRoute",
          "valueUri" : "http://hl7.org/fhir/"
        }, {
          "name" : "endpointUri",
          "valueUri" : "https://tx.fhir.org/r4/"
        }]
      }]
    } ],
  "extension": [ {
    "url": "http://hl7.org/fhir/StructureDefinition/cqf-expansionParameters",
    "valueReference": {
      "reference": "#exp-params"
    }
  }, {
    "url" : "http://hl7.org/fhir/StructureDefinition/cqf-endpointConfiguration",
    "valueReference" : {
      "reference" : "#endpoints"
    }
  } ],
  "url": "http://hl7.org/fhir/us/cqfmeasures/Library/ecqm-update-2024",
  "identifier": [ {
    "use": "official",
    "system": "http://example.org/fhir/cqi/ecqm/Library/Identifier",
    "value": "eCQM Update 2024"
  } ],
  "version": "1.0.0",
  "name": "ECQMUpdate2024",
  "title": "eCQM Update 2024",
  "status": "draft",
  "experimental": true,
  "type": {
    "coding": [ {
      "system": "http://terminology.hl7.org/CodeSystem/library-type",
      "code": "asset-collection"
    } ]
  },
  "date": "2024-04-23",
  "publisher": "Clinical Quality Information WG",
  "contact": [ {
    "telecom": [ {
      "system": "url",
      "value": "http://www.hl7.org/Special/committees/cqi"
    } ]
  } ],
  "description": "This library is an example final draft of a version manifest (also referred to as an expansion profile) that specifies expansion rules for a set of value sets used for an example set of EP/EC measures.",
  "jurisdiction": [ {
    "coding": [ {
      "system": "urn:iso:std:iso:3166",
      "code": "US"
    } ]
  } ],
  "purpose": "This library is defined to illustrate a Version Manifest in final draft status, as it would look at the end of an eCQM Annual Update cycle, approved on April 23rd, 2024. The latest available version of code systems used at that time is specified to provide stability for value set expansion during the testing and implementation phase. Terminology.HL7.org, in particular, was version 5.5.0 at the time, and FHIR code system versions are chosen from that release.",
  "approvalDate": "2024-04-23",
  "lastReviewDate": "2024-04-23",
  "relatedArtifact": [ {
    "type": "composed-of",
    "display": "Measure Discharged on Antithrombotic TherapyFHIR, 0.9.000",
    "resource": "https://madie.cms.gov/Measure/DischargedonAntithromboticTherapyFHIR|0.9.000"
  }, {
    "type": "composed-of",
    "display": "Measure Global Malnutrition CompositeFHIR, 0.2.000",
    "resource": "https://madie.cms.gov/Measure/GlobalMalnutritionCompositeFHIR|0.2.000"
  }, {
    "type": "composed-of",
    "display": "Measure HIV ScreeningFHIR, 0.2.000",
    "resource": "https://madie.cms.gov/Measure/HIVScreeningFHIR|0.2.000"
  }, {
    "type": "composed-of",
    "display": "Measure Hospital Harm - Severe HyperglycemiaFHIR, 0.1.000",
    "resource": "https://madie.cms.gov/Measure/HospitalHarmHyperglycemiainHospitalizedPatientsFHIR|0.1.000"
  }, {
    "type": "composed-of",
    "display": "Measure Core Clinical Data Elements for the Hybrid Hospital Wide All Condition All Procedure Risk Standardized Mortality Measure HWMFHIR, 0.0.001",
    "resource": "https://madie.cms.gov/Measure/HybridHospitalWideMortalityFHIR|0.0.001"
  }, {
    "type": "composed-of",
    "display": "Measure Primary Caries Prevention Intervention as Offered by DentistsFHIR, 0.0.002",
    "resource": "https://madie.cms.gov/Measure/PrimaryCariesPreventionasOfferedbyDentistsFHIR|0.0.002"
  }, {
    "type": "composed-of",
    "display": "Measure Severe Obstetric ComplicationsFHIR, 0.1.000",
    "resource": "https://madie.cms.gov/Measure/SevereObstetricComplicationsFHIR|0.1.000"
  } ]
}