{
  "resourceType": "Library",
  "id": "Manifest-Release",
  "meta": {
    "profile": [ "http://hl7.org/fhir/uv/crmi/StructureDefinition/crmi-manifestlibrary" ]
  },
  "contained": [ {
    "resourceType": "Parameters",
    "id": "exp-params",
    "parameter": [ {
      "name": "system-version",
      "valueUri": "http://snomed.info/sct|http://snomed.info/sct/731000124108/version/20230901"
    }, {
      "name": "system-version",
      "valueUri": "http://loinc.org|2.76"
    }, {
      "name": "system-version",
      "valueUri": "http://terminology.hl7.org/CodeSystem/v3-ActCode|9.0.0"
    }, {
      "name": "system-version",
      "valueUri": "http://terminology.hl7.org/CodeSystem/v3-AdministrativeGender|3.0.0"
    }, {
      "name": "system-version",
      "valueUri": "http://terminology.hl7.org/CodeSystem/CD2|2.0.1"
    }, {
      "name": "system-version",
      "valueUri": "urn:oid:2.16.840.1.113883.6.238|1.2"
    }, {
      "name": "system-version",
      "valueUri": "http://www.ama-assn.org/go/cpt|3.0.1"
    }, {
      "name": "system-version",
      "valueUri": "http://hl7.org/fhir/sid/cvx|4.0.0"
    }, {
      "name": "system-version",
      "valueUri": "http://terminology.hl7.org/CodeSystem/HCPCS-all-codes|3.0.0"
    }, {
      "name": "system-version",
      "valueUri": "http://www.cms.gov/Medicare/Coding/HCPCSReleaseCodeSets|1.0.2"
    }, {
      "name": "system-version",
      "valueUri": "http://hl7.org/fhir/sid/icd-10-cm|2.0.1"
    }, {
      "name": "system-version",
      "valueUri": "http://www.cms.gov/Medicare/Coding/ICD10|2.0.1"
    }, {
      "name": "system-version",
      "valueUri": "http://terminology.hl7.org/CodeSystem/icd9cm|2.0.1"
    }, {
      "name": "system-version",
      "valueUri": "http://terminology.hl7.org/CodeSystem/v2-0895|2.2.0"
    }, {
      "name": "system-version",
      "valueUri": "http://www.nlm.nih.gov/research/umls/rxnorm|3.0.1"
    }, {
      "name": "system-version",
      "valueUri": "https://nahdo.org/sopt|1.0.1"
    } ]
  }, {
    "resourceType": "Parameters",
    "id": "endpoints",
    "parameter": [ {
      "name": "artifactEndpointConfiguration",
      "part": [ {
        "name": "artifactRoute",
        "valueUri": "http://cts.nlm.nih.gov/fhir/ValueSet/2.16.840.1.113883.3.464.1003.1167|20220820"
      }, {
        "name": "endpointUri",
        "valueUri": "https://example.org/fhir/"
      } ]
    }, {
      "name": "artifactEndpointConfiguration",
      "part": [ {
        "name": "artifactRoute",
        "valueUri": "http://cts.nlm.nih.gov/fhir/"
      }, {
        "name": "endpointUri",
        "valueUri": "https://uat-cts.nlm.nih.gov/fhir/"
      } ]
    }, {
      "name": "artifactEndpointConfiguration",
      "part": [ {
        "name": "artifactRoute",
        "valueUri": "http://terminology.hl7.org/"
      }, {
        "name": "endpointUri",
        "valueUri": "https://tx.fhir.org/r4/"
      } ]
    }, {
      "name": "artifactEndpointConfiguration",
      "part": [ {
        "name": "artifactRoute",
        "valueUri": "http://hl7.org/fhir/"
      }, {
        "name": "endpointUri",
        "valueUri": "https://tx.fhir.org/r4/"
      } ]
    } ]
  } ],
  "extension": [ {
    "url": "http://hl7.org/fhir/StructureDefinition/cqf-expansionParameters",
    "valueReference": {
      "reference": "#exp-params"
    }
  }, {
    "url": "http://hl7.org/fhir/StructureDefinition/cqf-endpointConfiguration",
    "valueReference": {
      "reference": "#endpoints"
    }
  } ],
  "url": "http://hl7.org/fhir/us/cqfmeasures/Library/ecqm-update-2024",
  "identifier": [ {
    "use": "official",
    "system": "http://example.org/fhir/cqi/ecqm/Library/Identifier",
    "value": "eCQM Update 2024"
  } ],
  "version": "1.0.0",
  "name": "ECQMUpdate2024",
  "title": "eCQM Update 2024",
  "status": "active",
  "experimental": true,
  "type": {
    "coding": [ {
      "system": "http://terminology.hl7.org/CodeSystem/library-type",
      "code": "asset-collection"
    } ]
  },
  "date": "2024-09-23",
  "publisher": "Clinical Quality Information WG",
  "contact": [ {
    "telecom": [ {
      "system": "url",
      "value": "http://www.hl7.org/Special/committees/cqi"
    } ]
  } ],
  "description": "This library is an example final draft of a version manifest (also referred to as an expansion profile) that specifies expansion rules for a set of value sets used for an example set of EP/EC measures.",
  "jurisdiction": [ {
    "coding": [ {
      "system": "urn:iso:std:iso:3166",
      "code": "US"
    } ]
  } ],
  "purpose": "This library is defined to illustrate a Version Manifest in final draft status, as it would look at the end of an eCQM Annual Update cycle, approved on April 23rd, 2024. The latest available version of code systems used at that time is specified to provide stability for value set expansion during the testing and implementation phase. Terminology.HL7.org, in particular, was version 5.5.0 at the time, and FHIR code system versions are chosen from that release.",
  "approvalDate": "2024-04-23",
  "lastReviewDate": "2024-04-23",
  "relatedArtifact": [ {
    "type": "composed-of",
    "display": "Measure Discharged on Antithrombotic TherapyFHIR, 0.9.000",
    "resource": "https://madie.cms.gov/Measure/DischargedonAntithromboticTherapyFHIR|0.9.000"
  }, {
    "type": "composed-of",
    "display": "Measure Global Malnutrition CompositeFHIR, 0.2.000",
    "resource": "https://madie.cms.gov/Measure/GlobalMalnutritionCompositeFHIR|0.2.000"
  }, {
    "type": "composed-of",
    "display": "Measure HIV ScreeningFHIR, 0.2.000",
    "resource": "https://madie.cms.gov/Measure/HIVScreeningFHIR|0.2.000"
  }, {
    "type": "composed-of",
    "display": "Measure Hospital Harm - Severe HyperglycemiaFHIR, 0.1.000",
    "resource": "https://madie.cms.gov/Measure/HospitalHarmHyperglycemiainHospitalizedPatientsFHIR|0.1.000"
  }, {
    "type": "composed-of",
    "display": "Measure Core Clinical Data Elements for the Hybrid Hospital Wide All Condition All Procedure Risk Standardized Mortality Measure HWMFHIR, 0.0.001",
    "resource": "https://madie.cms.gov/Measure/HybridHospitalWideMortalityFHIR|0.0.001"
  }, {
    "type": "composed-of",
    "display": "Measure Primary Caries Prevention Intervention as Offered by DentistsFHIR, 0.0.002",
    "resource": "https://madie.cms.gov/Measure/PrimaryCariesPreventionasOfferedbyDentistsFHIR|0.0.002"
  }, {
    "type": "composed-of",
    "display": "Measure Severe Obstetric ComplicationsFHIR, 0.1.000",
    "resource": "https://madie.cms.gov/Measure/SevereObstetricComplicationsFHIR|0.1.000"
  }, {
    "type": "depends-on",
    "resource": "https://madie.cms.gov/Measure/DischargedonAntithromboticTherapyFHIR|0.9.000"
  }, {
    "type": "depends-on",
    "resource": "https://madie.cms.gov/Measure/GlobalMalnutritionCompositeFHIR|0.2.000"
  }, {
    "type": "depends-on",
    "resource": "https://madie.cms.gov/Measure/HIVScreeningFHIR|0.2.000"
  }, {
    "type": "depends-on",
    "resource": "https://madie.cms.gov/Measure/HospitalHarmHyperglycemiainHospitalizedPatientsFHIR|0.1.000"
  }, {
    "type": "depends-on",
    "resource": "https://madie.cms.gov/Measure/HybridHospitalWideMortalityFHIR|0.0.001"
  }, {
    "type": "depends-on",
    "resource": "https://madie.cms.gov/Measure/PrimaryCariesPreventionasOfferedbyDentistsFHIR|0.0.002"
  }, {
    "type": "depends-on",
    "resource": "https://madie.cms.gov/Measure/SevereObstetricComplicationsFHIR|0.1.000"
  }, {
    "type": "depends-on",
    "resource": "http://hl7.org/fhir/Library/QICore-ModelInfo"
  }, {
    "type": "depends-on",
    "resource": "http://ecqi.healthit.gov/ecqms/subset/Library/FHIRHelpers|4.4.000"
  }, {
    "type": "depends-on",
    "resource": "http://ecqi.healthit.gov/ecqms/subset/Library/CQMCommon|2.2.000"
  }, {
    "type": "depends-on",
    "resource": "http://ecqi.healthit.gov/ecqms/subset/Library/QICoreCommon|2.1.000"
  }, {
    "type": "depends-on",
    "resource": "http://ecqi.healthit.gov/ecqms/subset/Library/SupplementalDataElements|3.5.000"
  }, {
    "type": "depends-on",
    "resource": "http://ecqi.healthit.gov/ecqms/subset/Library/TJCOverall|8.14.000"
  }, {
    "type": "depends-on",
    "resource": "http://terminology.hl7.org/CodeSystem/diagnosis-role"
  }, {
    "type": "depends-on",
    "resource": "http://terminology.hl7.org/CodeSystem/medicationrequest-category"
  }, {
    "type": "depends-on",
    "resource": "http://hl7.org/fhir/administrative-gender"
  }, {
    "type": "depends-on",
    "resource": "http://cts.nlm.nih.gov/fhir/ValueSet/2.16.840.1.113762.1.4.1110.62|20210409"
  }, {
    "type": "depends-on",
    "resource": "http://cts.nlm.nih.gov/fhir/ValueSet/2.16.840.1.113883.3.117.1.7.1.473|20220212"
  }, {
    "type": "depends-on",
    "resource": "http://cts.nlm.nih.gov/fhir/ValueSet/2.16.840.1.113883.3.117.1.7.1.93|20230117"
  }, {
    "type": "depends-on",
    "resource": "http://cts.nlm.nih.gov/fhir/ValueSet/2.16.840.1.113762.1.4.1110.52|20220219"
  }, {
    "type": "depends-on",
    "resource": "http://cts.nlm.nih.gov/fhir/ValueSet/2.16.840.1.113883.3.117.1.7.1.424|20210220"
  }, {
    "type": "depends-on",
    "resource": "http://cts.nlm.nih.gov/fhir/ValueSet/2.16.840.1.113883.3.117.1.7.1.247|20210220"
  }, {
    "type": "depends-on",
    "resource": "http://cts.nlm.nih.gov/fhir/ValueSet/1.3.6.1.4.1.33895.1.3.0.45|20210220"
  }, {
    "type": "depends-on",
    "resource": "http://cts.nlm.nih.gov/fhir/ValueSet/2.16.840.1.113762.1.4.1111.143|20210611"
  }, {
    "type": "depends-on",
    "resource": "http://cts.nlm.nih.gov/fhir/ValueSet/2.16.840.1.113883.3.117.1.7.1.292|20210611"
  }, {
    "type": "depends-on",
    "resource": "http://cts.nlm.nih.gov/fhir/ValueSet/2.16.840.1.113883.3.117.1.7.1.87|20210611"
  }, {
    "type": "depends-on",
    "resource": "http://cts.nlm.nih.gov/fhir/ValueSet/2.16.840.1.113883.3.117.1.7.1.308|20210220"
  }, {
    "type": "depends-on",
    "resource": "http://cts.nlm.nih.gov/fhir/ValueSet/2.16.840.1.113883.3.117.1.7.1.309|20210611"
  }, {
    "type": "depends-on",
    "resource": "http://cts.nlm.nih.gov/fhir/ValueSet/2.16.840.1.113883.3.117.1.7.1.209|20210220"
  }, {
    "type": "depends-on",
    "resource": "http://cts.nlm.nih.gov/fhir/ValueSet/2.16.840.1.113883.3.117.1.7.1.207|20210611"
  }, {
    "type": "depends-on",
    "resource": "http://cts.nlm.nih.gov/fhir/ValueSet/2.16.840.1.114222.4.11.3591|20221118"
  }, {
    "type": "depends-on",
    "resource": "http://hl7.org/fhir/us/qicore/StructureDefinition/qicore-patient"
  }, {
    "type": "depends-on",
    "resource": "http://hl7.org/fhir/us/qicore/StructureDefinition/qicore-encounter"
  }, {
    "type": "depends-on",
    "resource": "http://hl7.org/fhir/us/qicore/StructureDefinition/qicore-condition"
  }, {
    "type": "depends-on",
    "resource": "http://hl7.org/fhir/us/qicore/StructureDefinition/qicore-servicerequest"
  }, {
    "type": "depends-on",
    "resource": "http://hl7.org/fhir/us/qicore/StructureDefinition/qicore-procedure"
  }, {
    "type": "depends-on",
    "resource": "http://hl7.org/fhir/us/qicore/StructureDefinition/qicore-medicationrequest"
  }, {
    "type": "depends-on",
    "resource": "http://hl7.org/fhir/us/qicore/StructureDefinition/qicore-mednotrequested"
  }, {
    "type": "depends-on",
    "resource": "http://hl7.org/fhir/us/qicore/StructureDefinition/qicore-coverage"
  }, {
    "type": "depends-on",
    "resource": "https://madie.cms.gov/Library/DischargedonAntithromboticTherapyFHIR|0.9.000"
  }, {
    "type": "depends-on",
    "resource": "http://ecqi.healthit.gov/ecqms/subset/Library/Status|1.8.000"
  }, {
    "type": "depends-on",
    "resource": "http://loinc.org"
  }, {
    "type": "depends-on",
    "resource": "http://snomed.info/sct"
  }, {
    "type": "depends-on",
    "resource": "http://hl7.org/fhir/sid/icd-10-cm"
  }, {
    "type": "depends-on",
    "resource": "http://cts.nlm.nih.gov/fhir/ValueSet/2.16.840.1.113883.3.666.5.307|20200307"
  }, {
    "type": "depends-on",
    "resource": "http://cts.nlm.nih.gov/fhir/ValueSet/2.16.840.1.114222.4.11.837|20121025"
  }, {
    "type": "depends-on",
    "resource": "http://cts.nlm.nih.gov/fhir/ValueSet/2.16.840.1.113762.1.4.1095.91|20221116"
  }, {
    "type": "depends-on",
    "resource": "http://cts.nlm.nih.gov/fhir/ValueSet/2.16.840.1.113762.1.4.1095.55|20180616"
  }, {
    "type": "depends-on",
    "resource": "http://cts.nlm.nih.gov/fhir/ValueSet/2.16.840.1.113762.1.4.1095.92|20240117"
  }, {
    "type": "depends-on",
    "resource": "http://cts.nlm.nih.gov/fhir/ValueSet/2.16.840.1.113762.1.4.1095.89|20240117"
  }, {
    "type": "depends-on",
    "resource": "http://cts.nlm.nih.gov/fhir/ValueSet/2.16.840.1.113762.1.4.1095.34|20240117"
  }, {
    "type": "depends-on",
    "resource": "http://cts.nlm.nih.gov/fhir/ValueSet/2.16.840.1.113762.1.4.1095.21|20240117"
  }, {
    "type": "depends-on",
    "resource": "http://cts.nlm.nih.gov/fhir/ValueSet/2.16.840.1.113762.1.4.1095.47|20240117"
  }, {
    "type": "depends-on",
    "resource": "http://cts.nlm.nih.gov/fhir/ValueSet/2.16.840.1.113762.1.4.1095.96|20240117"
  }, {
    "type": "depends-on",
    "resource": "http://cts.nlm.nih.gov/fhir/ValueSet/2.16.840.1.113762.1.4.1095.43|20240117"
  }, {
    "type": "depends-on",
    "resource": "http://cts.nlm.nih.gov/fhir/ValueSet/2.16.840.1.113762.1.4.1095.93|20240117"
  }, {
    "type": "depends-on",
    "resource": "http://cts.nlm.nih.gov/fhir/ValueSet/2.16.840.1.113762.1.4.1|20150331"
  }, {
    "type": "depends-on",
    "resource": "http://cts.nlm.nih.gov/fhir/ValueSet/2.16.840.1.114222.4.11.836|20121025"
  }, {
    "type": "depends-on",
    "resource": "http://hl7.org/fhir/us/qicore/StructureDefinition/qicore-observation"
  }, {
    "type": "depends-on",
    "resource": "https://madie.cms.gov/Library/GlobalMalnutritionCompositeFHIR|0.2.000"
  }, {
    "type": "depends-on",
    "resource": "http://terminology.hl7.org/CodeSystem/v3-ActCode"
  }, {
    "type": "depends-on",
    "resource": "http://terminology.hl7.org/CodeSystem/condition-clinical"
  }, {
    "type": "depends-on",
    "resource": "http://terminology.hl7.org/CodeSystem/condition-ver-status"
  }, {
    "type": "depends-on",
    "resource": "http://cts.nlm.nih.gov/fhir/ValueSet/2.16.840.1.113883.3.464.1003.120.12.1003|20240106"
  }, {
    "type": "depends-on",
    "resource": "http://cts.nlm.nih.gov/fhir/ValueSet/2.16.840.1.113762.1.4.1056.50|20240207"
  }, {
    "type": "depends-on",
    "resource": "http://cts.nlm.nih.gov/fhir/ValueSet/2.16.840.1.113883.3.464.1003.101.12.1001|20180310"
  }, {
    "type": "depends-on",
    "resource": "http://cts.nlm.nih.gov/fhir/ValueSet/2.16.840.1.113883.3.464.1003.101.12.1025|20170504"
  }, {
    "type": "depends-on",
    "resource": "http://cts.nlm.nih.gov/fhir/ValueSet/2.16.840.1.113883.3.464.1003.101.12.1022|20170504"
  }, {
    "type": "depends-on",
    "resource": "http://cts.nlm.nih.gov/fhir/ValueSet/2.16.840.1.113883.3.464.1003.101.12.1023|20170504"
  }, {
    "type": "depends-on",
    "resource": "http://cts.nlm.nih.gov/fhir/ValueSet/2.16.840.1.113883.3.464.1003.101.12.1024|20170504"
  }, {
    "type": "depends-on",
    "resource": "https://madie.cms.gov/Library/HIVScreeningFHIR|0.2.000"
  }, {
    "type": "depends-on",
    "resource": "http://cts.nlm.nih.gov/fhir/ValueSet/2.16.840.1.113883.3.560.100.4|20130401"
  }, {
    "type": "depends-on",
    "resource": "http://cts.nlm.nih.gov/fhir/ValueSet/2.16.840.1.113883.3.464.1003.103.12.1001|20220924"
  }, {
    "type": "depends-on",
    "resource": "http://cts.nlm.nih.gov/fhir/ValueSet/2.16.840.1.113762.1.4.1248.34|20230203"
  }, {
    "type": "depends-on",
    "resource": "http://cts.nlm.nih.gov/fhir/ValueSet/2.16.840.1.113762.1.4.1196.394|20240118"
  }, {
    "type": "depends-on",
    "resource": "http://hl7.org/fhir/us/qicore/StructureDefinition/qicore-medicationadministration"
  }, {
    "type": "depends-on",
    "resource": "https://madie.cms.gov/Library/HospitalHarmHyperglycemiainHospitalizedPatientsFHIR|0.1.000"
  }, {
    "type": "depends-on",
    "resource": "https://nahdo.org/sopt"
  }, {
    "type": "depends-on",
    "resource": "http://cts.nlm.nih.gov/fhir/ValueSet/2.16.840.1.113762.1.4.1045.139|20230214"
  }, {
    "type": "depends-on",
    "resource": "http://cts.nlm.nih.gov/fhir/ValueSet/2.16.840.1.113883.3.666.5.2363|20230214"
  }, {
    "type": "depends-on",
    "resource": "http://cts.nlm.nih.gov/fhir/ValueSet/2.16.840.1.113762.1.4.1045.114|20230214"
  }, {
    "type": "depends-on",
    "resource": "http://cts.nlm.nih.gov/fhir/ValueSet/2.16.840.1.113762.1.4.1104.12|20230214"
  }, {
    "type": "depends-on",
    "resource": "http://cts.nlm.nih.gov/fhir/ValueSet/2.16.840.1.113762.1.4.1104.10|20230214"
  }, {
    "type": "depends-on",
    "resource": "http://cts.nlm.nih.gov/fhir/ValueSet/2.16.840.1.113762.1.4.1045.151|20230214"
  }, {
    "type": "depends-on",
    "resource": "http://cts.nlm.nih.gov/fhir/ValueSet/2.16.840.1.113762.1.4.1045.127|20230214"
  }, {
    "type": "depends-on",
    "resource": "http://cts.nlm.nih.gov/fhir/ValueSet/2.16.840.1.113762.1.4.1045.119|20220218"
  }, {
    "type": "depends-on",
    "resource": "http://cts.nlm.nih.gov/fhir/ValueSet/2.16.840.1.113762.1.4.1045.129|20230214"
  }, {
    "type": "depends-on",
    "resource": "http://cts.nlm.nih.gov/fhir/ValueSet/2.16.840.1.113762.1.4.1110.38|20190426"
  }, {
    "type": "depends-on",
    "resource": "http://hl7.org/fhir/StructureDefinition/bodytemp"
  }, {
    "type": "depends-on",
    "resource": "http://hl7.org/fhir/StructureDefinition/heartrate"
  }, {
    "type": "depends-on",
    "resource": "http://hl7.org/fhir/StructureDefinition/bp"
  }, {
    "type": "depends-on",
    "resource": "http://hl7.org/fhir/us/core/StructureDefinition/us-core-observation-lab"
  }, {
    "type": "depends-on",
    "resource": "https://madie.cms.gov/Library/HybridHospitalWideMortalityFHIR|0.0.001"
  }, {
    "type": "depends-on",
    "resource": "http://ecqi.healthit.gov/ecqms/subset/Library/Hospice|6.12.000"
  }, {
    "type": "depends-on",
    "resource": "http://terminology.hl7.org/CodeSystem/observation-category"
  }, {
    "type": "depends-on",
    "resource": "http://cts.nlm.nih.gov/fhir/ValueSet/2.16.840.1.113883.3.464.1003.125.12.1003|20170504"
  }, {
    "type": "depends-on",
    "resource": "http://cts.nlm.nih.gov/fhir/ValueSet/2.16.840.1.113883.3.464.1003.125.12.1002|20210928"
  }, {
    "type": "depends-on",
    "resource": "http://cts.nlm.nih.gov/fhir/ValueSet/2.16.840.1.113883.3.464.1003.1003|20210820"
  }, {
    "type": "depends-on",
    "resource": "http://cts.nlm.nih.gov/fhir/ValueSet/2.16.840.1.113883.3.526.3.1584|20210825"
  }, {
    "type": "depends-on",
    "resource": "http://cts.nlm.nih.gov/fhir/ValueSet/2.16.840.1.113883.3.464.1003.1165|20220818"
  }, {
    "type": "depends-on",
    "resource": "https://madie.cms.gov/Library/PrimaryCariesPreventionasOfferedbyDentistsFHIR|0.0.002"
  }, {
    "type": "depends-on",
    "resource": "http://ecqi.healthit.gov/ecqms/subset/Library/PCMaternal|5.19.000"
  }, {
    "type": "depends-on",
    "resource": "http://cts.nlm.nih.gov/fhir/ValueSet/2.16.840.1.113762.1.4.1110.67|20230217"
  }, {
    "type": "depends-on",
    "resource": "http://cts.nlm.nih.gov/fhir/ValueSet/2.16.840.1.113762.1.4.1029.233|20220127"
  }, {
    "type": "depends-on",
    "resource": "http://cts.nlm.nih.gov/fhir/ValueSet/2.16.840.1.113883.3.666.5.623|20240210"
  }, {
    "type": "depends-on",
    "resource": "http://cts.nlm.nih.gov/fhir/ValueSet/2.16.840.1.113883.3.117.1.7.1.271|20220127"
  }, {
    "type": "depends-on",
    "resource": "http://cts.nlm.nih.gov/fhir/ValueSet/2.16.840.1.113762.1.4.1110.53|20240210"
  }, {
    "type": "depends-on",
    "resource": "http://cts.nlm.nih.gov/fhir/ValueSet/2.16.840.1.113762.1.4.1029.214|20220127"
  }, {
    "type": "depends-on",
    "resource": "http://cts.nlm.nih.gov/fhir/ValueSet/2.16.840.1.113762.1.4.1029.243|20220127"
  }, {
    "type": "depends-on",
    "resource": "http://cts.nlm.nih.gov/fhir/ValueSet/2.16.840.1.113762.1.4.1029.217|20220127"
  }, {
    "type": "depends-on",
    "resource": "http://cts.nlm.nih.gov/fhir/ValueSet/2.16.840.1.113762.1.4.1029.323|20220127"
  }, {
    "type": "depends-on",
    "resource": "http://cts.nlm.nih.gov/fhir/ValueSet/2.16.840.1.113762.1.4.1029.219|20230217"
  }, {
    "type": "depends-on",
    "resource": "http://cts.nlm.nih.gov/fhir/ValueSet/2.16.840.1.113762.1.4.1029.311|20220127"
  }, {
    "type": "depends-on",
    "resource": "http://cts.nlm.nih.gov/fhir/ValueSet/2.16.840.1.113762.1.4.1029.317|20220127"
  }, {
    "type": "depends-on",
    "resource": "http://cts.nlm.nih.gov/fhir/ValueSet/2.16.840.1.113762.1.4.1029.287|20220127"
  }, {
    "type": "depends-on",
    "resource": "http://cts.nlm.nih.gov/fhir/ValueSet/2.16.840.1.113762.1.4.1029.213|20220127"
  }, {
    "type": "depends-on",
    "resource": "http://cts.nlm.nih.gov/fhir/ValueSet/2.16.840.1.113762.1.4.1029.221|20220127"
  }, {
    "type": "depends-on",
    "resource": "http://cts.nlm.nih.gov/fhir/ValueSet/2.16.840.1.113762.1.4.1029.341|20220127"
  }, {
    "type": "depends-on",
    "resource": "http://cts.nlm.nih.gov/fhir/ValueSet/2.16.840.1.113762.1.4.1029.357|20210121"
  }, {
    "type": "depends-on",
    "resource": "http://cts.nlm.nih.gov/fhir/ValueSet/2.16.840.1.113762.1.4.1029.373|20220127"
  }, {
    "type": "depends-on",
    "resource": "http://cts.nlm.nih.gov/fhir/ValueSet/2.16.840.1.113762.1.4.1045.59|20210611"
  }, {
    "type": "depends-on",
    "resource": "http://cts.nlm.nih.gov/fhir/ValueSet/2.16.840.1.113762.1.4.1029.223|20230217"
  }, {
    "type": "depends-on",
    "resource": "http://cts.nlm.nih.gov/fhir/ValueSet/2.16.840.1.113762.1.4.1029.225|20220127"
  }, {
    "type": "depends-on",
    "resource": "http://cts.nlm.nih.gov/fhir/ValueSet/2.16.840.1.113762.1.4.1029.292|20220127"
  }, {
    "type": "depends-on",
    "resource": "http://cts.nlm.nih.gov/fhir/ValueSet/2.16.840.1.113762.1.4.1029.369|20210611"
  }, {
    "type": "depends-on",
    "resource": "http://cts.nlm.nih.gov/fhir/ValueSet/2.16.840.1.113762.1.4.1045.26|20210611"
  }, {
    "type": "depends-on",
    "resource": "http://cts.nlm.nih.gov/fhir/ValueSet/2.16.840.1.113762.1.4.1029.338|20220127"
  }, {
    "type": "depends-on",
    "resource": "http://cts.nlm.nih.gov/fhir/ValueSet/2.16.840.1.113762.1.4.1029.269|20220127"
  }, {
    "type": "depends-on",
    "resource": "http://cts.nlm.nih.gov/fhir/ValueSet/2.16.840.1.113762.1.4.1029.227|20220127"
  }, {
    "type": "depends-on",
    "resource": "http://cts.nlm.nih.gov/fhir/ValueSet/2.16.840.1.113762.1.4.1029.272|20220127"
  }, {
    "type": "depends-on",
    "resource": "http://cts.nlm.nih.gov/fhir/ValueSet/2.16.840.1.113762.1.4.1029.332|20220127"
  }, {
    "type": "depends-on",
    "resource": "http://cts.nlm.nih.gov/fhir/ValueSet/2.16.840.1.113762.1.4.1029.358|20210121"
  }, {
    "type": "depends-on",
    "resource": "http://cts.nlm.nih.gov/fhir/ValueSet/2.16.840.1.113762.1.4.1029.366|20220127"
  }, {
    "type": "depends-on",
    "resource": "http://cts.nlm.nih.gov/fhir/ValueSet/2.16.840.1.113762.1.4.1029.314|20220127"
  }, {
    "type": "depends-on",
    "resource": "http://cts.nlm.nih.gov/fhir/ValueSet/2.16.840.1.113762.1.4.1029.329|20220127"
  }, {
    "type": "depends-on",
    "resource": "http://cts.nlm.nih.gov/fhir/ValueSet/2.16.840.1.113762.1.4.1029.290|20220127"
  }, {
    "type": "depends-on",
    "resource": "http://cts.nlm.nih.gov/fhir/ValueSet/2.16.840.1.113762.1.4.1029.284|20220127"
  }, {
    "type": "depends-on",
    "resource": "http://cts.nlm.nih.gov/fhir/ValueSet/2.16.840.1.113762.1.4.1029.308|20220127"
  }, {
    "type": "depends-on",
    "resource": "http://cts.nlm.nih.gov/fhir/ValueSet/2.16.840.1.113762.1.4.1029.302|20220127"
  }, {
    "type": "depends-on",
    "resource": "http://cts.nlm.nih.gov/fhir/ValueSet/2.16.840.1.113762.1.4.1029.388|20240223"
  }, {
    "type": "depends-on",
    "resource": "http://cts.nlm.nih.gov/fhir/ValueSet/2.16.840.1.113762.1.4.1110.78|20231111"
  }, {
    "type": "depends-on",
    "resource": "http://cts.nlm.nih.gov/fhir/ValueSet/2.16.840.1.113762.1.4.1029.305|20220127"
  }, {
    "type": "depends-on",
    "resource": "http://cts.nlm.nih.gov/fhir/ValueSet/2.16.840.1.113762.1.4.1029.275|20220127"
  }, {
    "type": "depends-on",
    "resource": "http://cts.nlm.nih.gov/fhir/ValueSet/2.16.840.1.113762.1.4.1029.370|20220127"
  }, {
    "type": "depends-on",
    "resource": "http://cts.nlm.nih.gov/fhir/ValueSet/2.16.840.1.113762.1.4.1110.63|20220127"
  }, {
    "type": "depends-on",
    "resource": "http://cts.nlm.nih.gov/fhir/ValueSet/2.16.840.1.113762.1.4.1029.299|20220127"
  }, {
    "type": "depends-on",
    "resource": "http://cts.nlm.nih.gov/fhir/ValueSet/2.16.840.1.113762.1.4.1029.278|20220316"
  }, {
    "type": "depends-on",
    "resource": "http://cts.nlm.nih.gov/fhir/ValueSet/2.16.840.1.113762.1.4.1029.229|20230217"
  }, {
    "type": "depends-on",
    "resource": "http://cts.nlm.nih.gov/fhir/ValueSet/2.16.840.1.113762.1.4.1029.231|20220127"
  }, {
    "type": "depends-on",
    "resource": "http://cts.nlm.nih.gov/fhir/ValueSet/2.16.840.1.113762.1.4.1029.281|20220127"
  }, {
    "type": "depends-on",
    "resource": "http://cts.nlm.nih.gov/fhir/ValueSet/2.16.840.1.113762.1.4.1029.335|20220127"
  }, {
    "type": "depends-on",
    "resource": "http://cts.nlm.nih.gov/fhir/ValueSet/2.16.840.1.113762.1.4.1029.376|20220127"
  }, {
    "type": "depends-on",
    "resource": "http://cts.nlm.nih.gov/fhir/ValueSet/2.16.840.1.113762.1.4.1029.379|20220127"
  }, {
    "type": "depends-on",
    "resource": "http://cts.nlm.nih.gov/fhir/ValueSet/2.16.840.1.113762.1.4.1029.237|20240210"
  }, {
    "type": "depends-on",
    "resource": "http://cts.nlm.nih.gov/fhir/ValueSet/2.16.840.1.113762.1.4.1029.235|20220127"
  }, {
    "type": "depends-on",
    "resource": "http://cts.nlm.nih.gov/fhir/ValueSet/2.16.840.1.113762.1.4.1029.255|20220127"
  }, {
    "type": "depends-on",
    "resource": "http://cts.nlm.nih.gov/fhir/ValueSet/2.16.840.1.113762.1.4.1029.256|20230218"
  }, {
    "type": "depends-on",
    "resource": "http://cts.nlm.nih.gov/fhir/ValueSet/2.16.840.1.113762.1.4.1029.327|20220127"
  }, {
    "type": "depends-on",
    "resource": "http://cts.nlm.nih.gov/fhir/ValueSet/2.16.840.1.113762.1.4.1029.239|20220127"
  }, {
    "type": "depends-on",
    "resource": "http://cts.nlm.nih.gov/fhir/ValueSet/2.16.840.1.113762.1.4.1029.241|20240210"
  }, {
    "type": "depends-on",
    "resource": "http://cts.nlm.nih.gov/fhir/ValueSet/2.16.840.1.113762.1.4.1029.320|20220127"
  }, {
    "type": "depends-on",
    "resource": "http://cts.nlm.nih.gov/fhir/ValueSet/2.16.840.1.113762.1.4.1029.296|20220127"
  }, {
    "type": "depends-on",
    "resource": "http://cts.nlm.nih.gov/fhir/ValueSet/2.16.840.1.113762.1.4.1029.359|20210121"
  }, {
    "type": "depends-on",
    "resource": "http://cts.nlm.nih.gov/fhir/ValueSet/2.16.840.1.113762.1.4.1029.363|20220127"
  }, {
    "type": "depends-on",
    "resource": "http://cts.nlm.nih.gov/fhir/ValueSet/2.16.840.1.113762.1.4.1029.360|20210121"
  }, {
    "type": "depends-on",
    "resource": "https://madie.cms.gov/Library/SevereObstetricComplicationsFHIR|0.1.000"
  } ]
}