{"resourceType":"Bundle","id":"tests-fb5c51ec-7a7f-4085-9782-97cf438f7247-bundle","type":"transaction","entry":[{"fullUrl":"https://madie.cms.gov/Patient/fb5c51ec-7a7f-4085-9782-97cf438f7247","resource":{"resourceType":"Patient","id":"fb5c51ec-7a7f-4085-9782-97cf438f7247","meta":{"profile":["http://hl7.org/fhir/us/qicore/StructureDefinition/qicore-patient"]},"text":{"status":"generated","div":"<div xmlns=\"http://www.w3.org/1999/xhtml\"><div class=\"hapiHeaderText\">CMO_EDvisit_EDendsOnEncStart <b>DENEXPASS </b></div><table class=\"hapiPropertyTable\"><tbody><tr><td>Identifier</td><td>560c2962ef197875484c3db716725045</td></tr><tr><td>Date of birth</td><td><span>02 January 1974</span></td></tr></tbody></table></div>"},"extension":[{"url":"http://hl7.org/fhir/us/core/StructureDefinition/us-core-race","extension":[{"url":"ombCategory","valueCoding":{"system":"urn:oid:2.16.840.1.113883.6.238","code":"1002-5","display":"American Indian or Alaska Native","userSelected":true}},{"url":"text","valueString":"American Indian or Alaska Native"}]},{"url":"http://hl7.org/fhir/us/core/StructureDefinition/us-core-ethnicity","extension":[{"url":"ombCategory","valueCoding":{"system":"urn:oid:2.16.840.1.113883.6.238","code":"2135-2","display":"Hispanic or Latino","userSelected":true}},{"url":"text","valueString":"Hispanic or Latino"}]}],"identifier":[{"type":{"coding":[{"system":"http://terminology.hl7.org/CodeSystem/v2-0203","code":"MR"}]},"system":"https://bonnie-fhir.healthit.gov/","value":"612e6abd02c62a011f2eb1c3"}],"active":true,"name":[{"use":"usual","family":"DENEXPass","given":["CMO_EDvisit_EDendsOnEncStart"]}],"gender":"male","birthDate":"1974-01-02"},"request":{"method":"PUT","url":"Patient/fb5c51ec-7a7f-4085-9782-97cf438f7247"}},{"fullUrl":"https://madie.cms.gov/Encounter/5ca62960b8484628b8de1e61","resource":{"resourceType":"Encounter","id":"04a5858a-7240-4cf6-bd30-8bf5238fd911","meta":{"profile":["http://hl7.org/fhir/us/qicore/StructureDefinition/qicore-encounter"]},"status":"finished","class":{"system":"http://terminology.hl7.org/CodeSystem/v3-ActCode","code":"EMER","display":"emergency"},"type":[{"coding":[{"system":"http://snomed.info/sct","code":"4525004"}]}],"subject":{"reference":"Patient/fb5c51ec-7a7f-4085-9782-97cf438f7247"},"period":{"start":"2025-10-31T05:00:00+00:00","end":"2025-11-01T08:00:00+00:00"},"length":{"value":1.0,"unit":"days"}},"request":{"method":"PUT","url":"Encounter/04a5858a-7240-4cf6-bd30-8bf5238fd911"}},{"fullUrl":"https://madie.cms.gov/Encounter/5ca62960b8484628b8de1e62","resource":{"resourceType":"Encounter","id":"d5ed11d0-be61-4a67-903e-a62610dfe441","meta":{"profile":["http://hl7.org/fhir/us/qicore/StructureDefinition/qicore-encounter"]},"status":"finished","class":{"system":"http://terminology.hl7.org/CodeSystem/v3-ActCode","code":"IMP","display":"inpatient encounter"},"type":[{"coding":[{"system":"http://snomed.info/sct","code":"8715000"}]}],"subject":{"reference":"Patient/fb5c51ec-7a7f-4085-9782-97cf438f7247"},"period":{"start":"2025-11-01T08:00:00+00:00","end":"2025-11-26T08:15:00+00:00"},"length":{"value":25.0,"unit":"days"}},"request":{"method":"PUT","url":"Encounter/d5ed11d0-be61-4a67-903e-a62610dfe441"}},{"fullUrl":"https://madie.cms.gov/ServiceRequest/5ca62960b8484628b8de1e63","resource":{"resourceType":"ServiceRequest","id":"3b603ed3-6ade-4822-92c5-74650bbc6832","meta":{"profile":["http://hl7.org/fhir/us/qicore/StructureDefinition/qicore-servicerequest"]},"status":"completed","intent":"order","code":{"coding":[{"system":"http://snomed.info/sct","code":"133918004"}]},"subject":{"reference":"Patient/fb5c51ec-7a7f-4085-9782-97cf438f7247"},"authoredOn":"2025-10-31T07:00:00+00:00"},"request":{"method":"PUT","url":"ServiceRequest/3b603ed3-6ade-4822-92c5-74650bbc6832"}},{"fullUrl":"https://madie.cms.gov/Coverage/5fa041581c76ba66d995926e","resource":{"resourceType":"Coverage","id":"31c21140-6ef1-4dc6-8af4-dd296880fd8f","status":"active","beneficiary":{"reference":"Patient/fb5c51ec-7a7f-4085-9782-97cf438f7247"},"period":{"start":"1974-01-02T08:00:00+00:00"},"payor":[{"reference":"Organization/42846cc3-1db0-4bf7-b9ff-8b81fa6e835d"}]},"request":{"method":"PUT","url":"Coverage/31c21140-6ef1-4dc6-8af4-dd296880fd8f"}},{"fullUrl":"https://madie.cms.gov/Organization/123456","resource":{"resourceType":"Organization","id":"42846cc3-1db0-4bf7-b9ff-8b81fa6e835d","meta":{"profile":["http://hl7.org/fhir/us/qicore/StructureDefinition/qicore-organization"]},"identifier":[{"use":"temp","system":"urn:oid:2.16.840.1.113883.4.4","value":"21-3259825"}],"active":true,"type":[{"coding":[{"system":"http://terminology.hl7.org/CodeSystem/organization-type","code":"pay","display":"Payer"}]}],"name":"Blue Cross Blue Shield of Texas","telecom":[{"system":"phone","value":"(+1) 972-766-6900"}],"address":[{"use":"billing","type":"postal","line":["P.O. Box 660044"],"city":"Dallas","state":"TX","postalCode":"75266-0044","country":"USA"}]},"request":{"method":"PUT","url":"Organization/42846cc3-1db0-4bf7-b9ff-8b81fa6e835d"}},{"fullUrl":"https://madie.cms.gov/Practitioner/practitioner-123456","resource":{"resourceType":"Practitioner","id":"1528bdca-2f09-476b-b43d-6cc9f25aa104","identifier":[{"system":"http://hl7.org/fhir/sid/us-npi","value":"123456"}],"name":[{"family":"Evil","prefix":["Dr"]}]},"request":{"method":"PUT","url":"Practitioner/1528bdca-2f09-476b-b43d-6cc9f25aa104"}},{"fullUrl":"https://madie.cms.gov/MeasureReport/85a88cd9-1c3e-41bc-a520-010a9372df84","resource":{"resourceType":"MeasureReport","id":"85a88cd9-1c3e-41bc-a520-010a9372df84","meta":{"profile":["http://hl7.org/fhir/us/cqfmeasures/StructureDefinition/test-case-cqfm"]},"contained":[{"resourceType":"Parameters","id":"e46714ad-3d44-41f9-a1dc-5e3db5536235-parameters","parameter":[{"name":"subject","valueString":"fb5c51ec-7a7f-4085-9782-97cf438f7247"}]}],"extension":[{"url":"http://hl7.org/fhir/us/cqfmeasures/StructureDefinition/cqfm-inputParameters","valueReference":{"reference":"#e46714ad-3d44-41f9-a1dc-5e3db5536235-parameters"}},{"url":"http://hl7.org/fhir/us/cqfmeasures/StructureDefinition/cqfm-testCaseDescription","valueMarkdown":"Comfort Measures Intervention Order - during ED and ED end time is concurrent with EncInp start time.\n"}],"modifierExtension":[{"url":"http://hl7.org/fhir/us/cqfmeasures/StructureDefinition/cqfm-isTestCase","valueBoolean":true}],"status":"complete","type":"individual","measure":"https://madie.cms.gov/Measure/VenousThromboembolismProphylaxisFHIR","period":{"start":"2025-01-01","end":"2025-12-31"},"group":[{"population":[{"code":{"coding":[{"system":"http://terminology.hl7.org/CodeSystem/measure-population","code":"initial-population","display":"Initial Population"}]},"count":1},{"code":{"coding":[{"system":"http://terminology.hl7.org/CodeSystem/measure-population","code":"denominator","display":"Denominator"}]},"count":1},{"code":{"coding":[{"system":"http://terminology.hl7.org/CodeSystem/measure-population","code":"denominator-exclusion","display":"Denominator Exclusion"}]},"count":1},{"code":{"coding":[{"system":"http://terminology.hl7.org/CodeSystem/measure-population","code":"numerator","display":"Numerator"}]},"count":0}]}]},"request":{"method":"PUT","url":"MeasureReport/85a88cd9-1c3e-41bc-a520-010a9372df84"}}]}