{"resourceType":"Bundle","id":"tests-1b7603d3-81d1-45be-8b6f-a483827e9eb8-bundle","type":"transaction","entry":[{"fullUrl":"https://madie.cms.gov/Patient/1b7603d3-81d1-45be-8b6f-a483827e9eb8","resource":{"resourceType":"Patient","id":"1b7603d3-81d1-45be-8b6f-a483827e9eb8","meta":{"profile":["http://hl7.org/fhir/us/qicore/StructureDefinition/qicore-patient"]},"text":{"status":"generated","div":"<div xmlns=\"http://www.w3.org/1999/xhtml\"><div class=\"hapiHeaderText\">MA_LMWH_DayOfAdmit <b>NUMERPASS </b></div><table class=\"hapiPropertyTable\"><tbody><tr><td>Identifier</td><td>e213550d1409db28f4a0cef7910ee883</td></tr><tr><td>Date of birth</td><td><span>02 January 1974</span></td></tr></tbody></table></div>"},"extension":[{"url":"http://hl7.org/fhir/us/core/StructureDefinition/us-core-race","extension":[{"url":"ombCategory","valueCoding":{"system":"urn:oid:2.16.840.1.113883.6.238","code":"1002-5","display":"American Indian or Alaska Native","userSelected":true}},{"url":"text","valueString":"American Indian or Alaska Native"}]},{"url":"http://hl7.org/fhir/us/core/StructureDefinition/us-core-ethnicity","extension":[{"url":"ombCategory","valueCoding":{"system":"urn:oid:2.16.840.1.113883.6.238","code":"2135-2","display":"Hispanic or Latino","userSelected":true}},{"url":"text","valueString":"Hispanic or Latino"}]}],"identifier":[{"type":{"coding":[{"system":"http://terminology.hl7.org/CodeSystem/v2-0203","code":"MR"}]},"system":"https://bonnie-fhir.healthit.gov/","value":"612e6a7a02c62a011f2ea2a3"}],"active":true,"name":[{"use":"usual","family":"NUMERPass","given":["MA_LMWH_DayOfAdmit"]}],"gender":"male","birthDate":"1974-01-02"},"request":{"method":"PUT","url":"Patient/1b7603d3-81d1-45be-8b6f-a483827e9eb8"}},{"fullUrl":"https://madie.cms.gov/Encounter/5ca6295eb8484628b8de1d9f","resource":{"resourceType":"Encounter","id":"dcffed10-cc50-4fb5-9dfa-d7cdfea2ae5e","meta":{"profile":["http://hl7.org/fhir/us/qicore/StructureDefinition/qicore-encounter"]},"status":"finished","class":{"system":"http://terminology.hl7.org/CodeSystem/v3-ActCode","code":"IMP","display":"inpatient encounter"},"type":[{"coding":[{"system":"http://snomed.info/sct","code":"8715000"}]}],"subject":{"reference":"Patient/1b7603d3-81d1-45be-8b6f-a483827e9eb8"},"period":{"start":"2025-11-01T08:00:00+00:00","end":"2025-11-26T08:15:00+00:00"},"length":{"value":25.0,"unit":"days"}},"request":{"method":"PUT","url":"Encounter/dcffed10-cc50-4fb5-9dfa-d7cdfea2ae5e"}},{"fullUrl":"https://madie.cms.gov/Coverage/5fa0414e1c76ba66d99591c6","resource":{"resourceType":"Coverage","id":"10bfeea8-3ec7-44c4-8f82-c38742285062","status":"active","beneficiary":{"reference":"Patient/1b7603d3-81d1-45be-8b6f-a483827e9eb8"},"period":{"start":"1974-01-02T08:00:00+00:00"},"payor":[{"reference":"Organization/42846cc3-1db0-4bf7-b9ff-8b81fa6e835d"}]},"request":{"method":"PUT","url":"Coverage/10bfeea8-3ec7-44c4-8f82-c38742285062"}},{"fullUrl":"https://madie.cms.gov/MedicationAdministration/5ca6295eb8484628b8de1da0","resource":{"resourceType":"MedicationAdministration","id":"6b2b6830-78eb-4134-931b-989df515bead","meta":{"profile":["http://hl7.org/fhir/us/qicore/StructureDefinition/qicore-medicationadministration"]},"status":"completed","medicationCodeableConcept":{"coding":[{"system":"http://www.nlm.nih.gov/research/umls/rxnorm","code":"854228"}]},"subject":{"reference":"Patient/1b7603d3-81d1-45be-8b6f-a483827e9eb8"},"effectivePeriod":{"start":"2025-11-01T09:00:00+00:00","end":"2025-11-01T09:15:00+00:00"}},"request":{"method":"PUT","url":"MedicationAdministration/6b2b6830-78eb-4134-931b-989df515bead"}},{"fullUrl":"https://madie.cms.gov/Organization/123456","resource":{"resourceType":"Organization","id":"42846cc3-1db0-4bf7-b9ff-8b81fa6e835d","meta":{"profile":["http://hl7.org/fhir/us/qicore/StructureDefinition/qicore-organization"]},"identifier":[{"use":"temp","system":"urn:oid:2.16.840.1.113883.4.4","value":"21-3259825"}],"active":true,"type":[{"coding":[{"system":"http://terminology.hl7.org/CodeSystem/organization-type","code":"pay","display":"Payer"}]}],"name":"Blue Cross Blue Shield of Texas","telecom":[{"system":"phone","value":"(+1) 972-766-6900"}],"address":[{"use":"billing","type":"postal","line":["P.O. Box 660044"],"city":"Dallas","state":"TX","postalCode":"75266-0044","country":"USA"}]},"request":{"method":"PUT","url":"Organization/42846cc3-1db0-4bf7-b9ff-8b81fa6e835d"}},{"fullUrl":"https://madie.cms.gov/Practitioner/practitioner-123456","resource":{"resourceType":"Practitioner","id":"98d744d6-a474-4468-a177-f9a1f7b3b61e","identifier":[{"system":"http://hl7.org/fhir/sid/us-npi","value":"123456"}],"name":[{"family":"Evil","prefix":["Dr"]}]},"request":{"method":"PUT","url":"Practitioner/98d744d6-a474-4468-a177-f9a1f7b3b61e"}},{"fullUrl":"https://madie.cms.gov/MeasureReport/6d853230-60cb-4683-9fb9-6ee16d51ec68","resource":{"resourceType":"MeasureReport","id":"6d853230-60cb-4683-9fb9-6ee16d51ec68","meta":{"profile":["http://hl7.org/fhir/us/cqfmeasures/StructureDefinition/test-case-cqfm"]},"contained":[{"resourceType":"Parameters","id":"aca764bc-3f14-4397-96a6-8c4c7931434d-parameters","parameter":[{"name":"subject","valueString":"1b7603d3-81d1-45be-8b6f-a483827e9eb8"}]}],"extension":[{"url":"http://hl7.org/fhir/us/cqfmeasures/StructureDefinition/cqfm-inputParameters","valueReference":{"reference":"#aca764bc-3f14-4397-96a6-8c4c7931434d-parameters"}},{"url":"http://hl7.org/fhir/us/cqfmeasures/StructureDefinition/cqfm-testCaseDescription","valueMarkdown":"lmwh administered during IP encounter\n"}],"modifierExtension":[{"url":"http://hl7.org/fhir/us/cqfmeasures/StructureDefinition/cqfm-isTestCase","valueBoolean":true}],"status":"complete","type":"individual","measure":"https://madie.cms.gov/Measure/VenousThromboembolismProphylaxisFHIR","period":{"start":"2025-01-01","end":"2025-12-31"},"group":[{"population":[{"code":{"coding":[{"system":"http://terminology.hl7.org/CodeSystem/measure-population","code":"initial-population","display":"Initial Population"}]},"count":1},{"code":{"coding":[{"system":"http://terminology.hl7.org/CodeSystem/measure-population","code":"denominator","display":"Denominator"}]},"count":1},{"code":{"coding":[{"system":"http://terminology.hl7.org/CodeSystem/measure-population","code":"denominator-exclusion","display":"Denominator Exclusion"}]},"count":0},{"code":{"coding":[{"system":"http://terminology.hl7.org/CodeSystem/measure-population","code":"numerator","display":"Numerator"}]},"count":1}]}]},"request":{"method":"PUT","url":"MeasureReport/6d853230-60cb-4683-9fb9-6ee16d51ec68"}}]}