{"resourceType":"Bundle","id":"tests-0ddb05b5-03af-4d2a-9d9c-0be8034d1ff4-bundle","type":"transaction","entry":[{"fullUrl":"https://madie.cms.gov/Patient/0ddb05b5-03af-4d2a-9d9c-0be8034d1ff4","resource":{"resourceType":"Patient","id":"0ddb05b5-03af-4d2a-9d9c-0be8034d1ff4","meta":{"profile":["http://hl7.org/fhir/us/qicore/StructureDefinition/qicore-patient"]},"text":{"status":"generated","div":"<div xmlns=\"http://www.w3.org/1999/xhtml\"><div class=\"hapiHeaderText\">CMPerf_DuringObs_ObsLT1HrBFAdm <b>DENEXPASS </b></div><table class=\"hapiPropertyTable\"><tbody><tr><td>Identifier</td><td>32a3c1b5766063c719384b1023bfc3dfc1d8c92f7b9304cae9d3eaf406b0a696</td></tr><tr><td>Date of birth</td><td><span>02 January 1974</span></td></tr></tbody></table></div>"},"extension":[{"url":"http://hl7.org/fhir/us/core/StructureDefinition/us-core-race","extension":[{"url":"ombCategory","valueCoding":{"system":"urn:oid:2.16.840.1.113883.6.238","code":"1002-5","display":"American Indian or Alaska Native","userSelected":true}},{"url":"text","valueString":"American Indian or Alaska Native"}]},{"url":"http://hl7.org/fhir/us/core/StructureDefinition/us-core-ethnicity","extension":[{"url":"ombCategory","valueCoding":{"system":"urn:oid:2.16.840.1.113883.6.238","code":"2135-2","display":"Hispanic or Latino","userSelected":true}},{"url":"text","valueString":"Hispanic or Latino"}]}],"identifier":[{"type":{"coding":[{"system":"http://terminology.hl7.org/CodeSystem/v2-0203","code":"MR"}]},"system":"https://bonnie-fhir.healthit.gov/","value":"612e6ae502c62a011f2eba79"}],"active":true,"name":[{"use":"usual","family":"DENEXPass","given":["CMPerf_DuringObs_ObsLT1HrBFAdm"]}],"gender":"male","birthDate":"1974-01-02"},"request":{"method":"PUT","url":"Patient/0ddb05b5-03af-4d2a-9d9c-0be8034d1ff4"}},{"fullUrl":"https://madie.cms.gov/Encounter/5ca62965b8484628b8de1fa0","resource":{"resourceType":"Encounter","id":"90b16147-6f7f-49b9-8382-42eedc6194a3","meta":{"profile":["http://hl7.org/fhir/us/qicore/StructureDefinition/qicore-encounter"]},"status":"finished","class":{"system":"http://terminology.hl7.org/CodeSystem/v3-ActCode","code":"EMER","display":"emergency"},"type":[{"coding":[{"system":"http://snomed.info/sct","code":"4525004"}]}],"subject":{"reference":"Patient/0ddb05b5-03af-4d2a-9d9c-0be8034d1ff4"},"period":{"start":"2025-10-31T04:00:00+00:00","end":"2025-11-01T05:15:00+00:00"},"length":{"value":1.0,"unit":"days"}},"request":{"method":"PUT","url":"Encounter/90b16147-6f7f-49b9-8382-42eedc6194a3"}},{"fullUrl":"https://madie.cms.gov/Encounter/5ca62965b8484628b8de1fa2","resource":{"resourceType":"Encounter","id":"d1dd2cae-3bd6-4da9-bb05-965d2a7b5b14","meta":{"profile":["http://hl7.org/fhir/us/qicore/StructureDefinition/qicore-encounter"]},"status":"finished","class":{"system":"http://terminology.hl7.org/CodeSystem/v3-ActCode","code":"IMP","display":"inpatient encounter"},"type":[{"coding":[{"system":"http://snomed.info/sct","code":"8715000"}]}],"subject":{"reference":"Patient/0ddb05b5-03af-4d2a-9d9c-0be8034d1ff4"},"period":{"start":"2025-11-01T08:00:00+00:00","end":"2025-11-26T08:15:00+00:00"},"length":{"value":25.0,"unit":"days"}},"request":{"method":"PUT","url":"Encounter/d1dd2cae-3bd6-4da9-bb05-965d2a7b5b14"}},{"fullUrl":"https://madie.cms.gov/Encounter/5e71222e102f8600006b521e","resource":{"resourceType":"Encounter","id":"0787a1f7-14a3-468e-80ca-987d44a86378","meta":{"profile":["http://hl7.org/fhir/us/qicore/StructureDefinition/qicore-encounter"]},"status":"finished","class":{"system":"http://terminology.hl7.org/CodeSystem/v3-ActCode","code":"OBSENC","display":"observation encounter"},"type":[{"coding":[{"system":"http://snomed.info/sct","code":"448951000124107"}]}],"subject":{"reference":"Patient/0ddb05b5-03af-4d2a-9d9c-0be8034d1ff4"},"period":{"start":"2025-11-01T05:20:00+00:00","end":"2025-11-01T07:30:00+00:00"}},"request":{"method":"PUT","url":"Encounter/0787a1f7-14a3-468e-80ca-987d44a86378"}},{"fullUrl":"https://madie.cms.gov/Procedure/5ca62965b8484628b8de1fa3","resource":{"resourceType":"Procedure","id":"1a52b488-c9ff-4f45-90bc-c5c270b3507c","meta":{"profile":["http://hl7.org/fhir/us/qicore/StructureDefinition/qicore-procedure"]},"extension":[{"url":"http://hl7.org/fhir/us/qicore/StructureDefinition/qicore-recorded","valueDateTime":"2012-11-01T09:35:00-04:00"}],"status":"completed","code":{"coding":[{"system":"http://snomed.info/sct","code":"133918004"}]},"subject":{"reference":"Patient/0ddb05b5-03af-4d2a-9d9c-0be8034d1ff4"},"performedPeriod":{"start":"2025-10-31T07:00:00+00:00"}},"request":{"method":"PUT","url":"Procedure/1a52b488-c9ff-4f45-90bc-c5c270b3507c"}},{"fullUrl":"https://madie.cms.gov/Coverage/5fa041621c76ba66d995932e","resource":{"resourceType":"Coverage","id":"beda4898-2ffa-42f6-8b31-96a4484bdc74","status":"active","beneficiary":{"reference":"Patient/0ddb05b5-03af-4d2a-9d9c-0be8034d1ff4"},"period":{"start":"1974-01-02T08:00:00+00:00"},"payor":[{"reference":"Organization/42846cc3-1db0-4bf7-b9ff-8b81fa6e835d"}]},"request":{"method":"PUT","url":"Coverage/beda4898-2ffa-42f6-8b31-96a4484bdc74"}},{"fullUrl":"https://madie.cms.gov/Organization/123456","resource":{"resourceType":"Organization","id":"42846cc3-1db0-4bf7-b9ff-8b81fa6e835d","meta":{"profile":["http://hl7.org/fhir/us/qicore/StructureDefinition/qicore-organization"]},"identifier":[{"use":"temp","system":"urn:oid:2.16.840.1.113883.4.4","value":"21-3259825"}],"active":true,"type":[{"coding":[{"system":"http://terminology.hl7.org/CodeSystem/organization-type","code":"pay","display":"Payer"}]}],"name":"Blue Cross Blue Shield of Texas","telecom":[{"system":"phone","value":"(+1) 972-766-6900"}],"address":[{"use":"billing","type":"postal","line":["P.O. Box 660044"],"city":"Dallas","state":"TX","postalCode":"75266-0044","country":"USA"}]},"request":{"method":"PUT","url":"Organization/42846cc3-1db0-4bf7-b9ff-8b81fa6e835d"}},{"fullUrl":"https://madie.cms.gov/Practitioner/practitioner-123456","resource":{"resourceType":"Practitioner","id":"c2769e52-3aa6-4ce9-b810-12b3f2e35b9a","identifier":[{"system":"http://hl7.org/fhir/sid/us-npi","value":"123456"}],"name":[{"family":"Evil","prefix":["Dr"]}]},"request":{"method":"PUT","url":"Practitioner/c2769e52-3aa6-4ce9-b810-12b3f2e35b9a"}},{"fullUrl":"https://madie.cms.gov/MeasureReport/fa7b327d-6c8e-4fc7-b92d-191b64ca0d28","resource":{"resourceType":"MeasureReport","id":"fa7b327d-6c8e-4fc7-b92d-191b64ca0d28","meta":{"profile":["http://hl7.org/fhir/us/cqfmeasures/StructureDefinition/test-case-cqfm"]},"contained":[{"resourceType":"Parameters","id":"924d6421-86b4-4d95-84bb-c8ace92e93bd-parameters","parameter":[{"name":"subject","valueString":"0ddb05b5-03af-4d2a-9d9c-0be8034d1ff4"}]}],"extension":[{"url":"http://hl7.org/fhir/us/cqfmeasures/StructureDefinition/cqfm-inputParameters","valueReference":{"reference":"#924d6421-86b4-4d95-84bb-c8ace92e93bd-parameters"}},{"url":"http://hl7.org/fhir/us/cqfmeasures/StructureDefinition/cqfm-testCaseDescription","valueMarkdown":"comfort measures performed in Observation, and Obs < 1hr prior to Adm \n"}],"modifierExtension":[{"url":"http://hl7.org/fhir/us/cqfmeasures/StructureDefinition/cqfm-isTestCase","valueBoolean":true}],"status":"complete","type":"individual","measure":"https://madie.cms.gov/Measure/VenousThromboembolismProphylaxisFHIR","period":{"start":"2025-01-01","end":"2025-12-31"},"group":[{"population":[{"code":{"coding":[{"system":"http://terminology.hl7.org/CodeSystem/measure-population","code":"initial-population","display":"Initial Population"}]},"count":1},{"code":{"coding":[{"system":"http://terminology.hl7.org/CodeSystem/measure-population","code":"denominator","display":"Denominator"}]},"count":1},{"code":{"coding":[{"system":"http://terminology.hl7.org/CodeSystem/measure-population","code":"denominator-exclusion","display":"Denominator Exclusion"}]},"count":1},{"code":{"coding":[{"system":"http://terminology.hl7.org/CodeSystem/measure-population","code":"numerator","display":"Numerator"}]},"count":0}]}]},"request":{"method":"PUT","url":"MeasureReport/fa7b327d-6c8e-4fc7-b92d-191b64ca0d28"}}]}