{"resourceType":"Bundle","id":"tests-8e2cfc29-0925-45b9-857f-b9ee9b9fa248-bundle","type":"transaction","entry":[{"fullUrl":"https://madie.cms.gov/Patient/8e2cfc29-0925-45b9-857f-b9ee9b9fa248","resource":{"resourceType":"Patient","id":"8e2cfc29-0925-45b9-857f-b9ee9b9fa248","meta":{"profile":["http://hl7.org/fhir/us/qicore/StructureDefinition/qicore-patient"]},"text":{"status":"generated","div":"<div xmlns=\"http://www.w3.org/1999/xhtml\"><div class=\"hapiHeaderText\">MedRsnMAWarfDAIPCDrgEDGT1hrSameDayAdm <b>NUMERPASS </b></div><table class=\"hapiPropertyTable\"><tbody><tr><td>Identifier</td><td>d5661b6a7ac7a6b9f13847d23af8475a</td></tr><tr><td>Date of birth</td><td><span>02 January 1974</span></td></tr></tbody></table></div>"},"extension":[{"url":"http://hl7.org/fhir/us/core/StructureDefinition/us-core-race","extension":[{"url":"ombCategory","valueCoding":{"system":"urn:oid:2.16.840.1.113883.6.238","code":"1002-5","display":"American Indian or Alaska Native","userSelected":true}},{"url":"text","valueString":"American Indian or Alaska Native"}]},{"url":"http://hl7.org/fhir/us/core/StructureDefinition/us-core-ethnicity","extension":[{"url":"ombCategory","valueCoding":{"system":"urn:oid:2.16.840.1.113883.6.238","code":"2135-2","display":"Hispanic or Latino","userSelected":true}},{"url":"text","valueString":"Hispanic or Latino"}]}],"identifier":[{"type":{"coding":[{"system":"http://terminology.hl7.org/CodeSystem/v2-0203","code":"MR"}]},"system":"https://bonnie-fhir.healthit.gov/","value":"612e6b8402c62a011f2ee1d9"}],"active":true,"name":[{"use":"usual","family":"NUMERPass","given":["MedRsnMAWarfDAIPCDrgEDGT1hrSameDayAdm"]}],"gender":"male","birthDate":"1974-01-02"},"request":{"method":"PUT","url":"Patient/8e2cfc29-0925-45b9-857f-b9ee9b9fa248"}},{"fullUrl":"https://madie.cms.gov/Encounter/5ca62961b8484628b8de1e81","resource":{"resourceType":"Encounter","id":"0c3dac28-1337-49db-b8ae-d3e299ef38ec","meta":{"profile":["http://hl7.org/fhir/us/qicore/StructureDefinition/qicore-encounter"]},"status":"finished","class":{"system":"http://terminology.hl7.org/CodeSystem/v3-ActCode","code":"EMER","display":"emergency"},"type":[{"coding":[{"system":"http://snomed.info/sct","code":"4525004"}]}],"subject":{"reference":"Patient/8e2cfc29-0925-45b9-857f-b9ee9b9fa248"},"period":{"start":"2025-10-31T04:00:00.000+00:00","end":"2025-11-01T07:15:00.000+00:00"},"length":{"value":1.0,"unit":"days"}},"request":{"method":"PUT","url":"Encounter/0c3dac28-1337-49db-b8ae-d3e299ef38ec"}},{"fullUrl":"https://madie.cms.gov/Encounter/5ca62961b8484628b8de1e82","resource":{"resourceType":"Encounter","id":"5d4ff77e-e641-43b0-a9a1-3cf1c0dfc746","meta":{"profile":["http://hl7.org/fhir/us/qicore/StructureDefinition/qicore-encounter"]},"status":"finished","class":{"system":"http://terminology.hl7.org/CodeSystem/v3-ActCode","code":"IMP","display":"inpatient encounter"},"type":[{"coding":[{"system":"http://snomed.info/sct","code":"8715000"}]}],"subject":{"reference":"Patient/8e2cfc29-0925-45b9-857f-b9ee9b9fa248"},"period":{"start":"2025-11-01T10:00:00.000+00:00","end":"2025-11-04T05:00:00.000+00:00"},"length":{"value":25.0,"unit":"days"}},"request":{"method":"PUT","url":"Encounter/5d4ff77e-e641-43b0-a9a1-3cf1c0dfc746"}},{"fullUrl":"https://madie.cms.gov/Coverage/5fa041591c76ba66d995928f","resource":{"resourceType":"Coverage","id":"b6d69ec1-dbcd-4250-869b-c0b268dc4bed","status":"active","beneficiary":{"reference":"Patient/8e2cfc29-0925-45b9-857f-b9ee9b9fa248"},"period":{"start":"1974-01-02T08:00:00+00:00"},"payor":[{"reference":"Organization/42846cc3-1db0-4bf7-b9ff-8b81fa6e835d"}]},"request":{"method":"PUT","url":"Coverage/b6d69ec1-dbcd-4250-869b-c0b268dc4bed"}},{"fullUrl":"https://madie.cms.gov/Procedure/device-application-8a0a","resource":{"resourceType":"Procedure","id":"44e48a8b-d524-46c5-bfd2-92198690cedb","meta":{"profile":["http://hl7.org/fhir/us/qicore/StructureDefinition/qicore-procedurenotdone"]},"extension":[{"url":"http://hl7.org/fhir/us/qicore/StructureDefinition/qicore-recorded","valueDateTime":"2025-11-01T06:35:00-04:00"}],"status":"not-done","statusReason":{"coding":[{"system":"http://snomed.info/sct","code":"183932001","display":"Procedure contraindicated (situation)","userSelected":true}]},"code":{"coding":[{"system":"http://snomed.info/sct","code":"443448006","display":"Application of intermittent pneumatic compression device (procedure)","userSelected":true}]},"subject":{"reference":"Patient/8e2cfc29-0925-45b9-857f-b9ee9b9fa248"},"_performedDateTime":{"extension":[{"url":"http://hl7.org/fhir/StructureDefinition/data-absent-reason","valueCode":"not-performed"}]}},"request":{"method":"PUT","url":"Procedure/44e48a8b-d524-46c5-bfd2-92198690cedb"}},{"fullUrl":"https://madie.cms.gov/MedicationAdministration/warfarin-8a15","resource":{"resourceType":"MedicationAdministration","id":"c04ebbab-fbb2-4e78-a9bc-22e1624d8087","meta":{"profile":["http://hl7.org/fhir/us/qicore/StructureDefinition/qicore-mednotadministered"]},"extension":[{"url":"http://hl7.org/fhir/us/qicore/StructureDefinition/qicore-recorded","valueDateTime":"2025-11-01T06:00:00+00:00"}],"status":"not-done","statusReason":[{"coding":[{"system":"http://snomed.info/sct","code":"183932001","display":"Procedure contraindicated (situation)","userSelected":true}]}],"medicationCodeableConcept":{"coding":[{"system":"http://www.nlm.nih.gov/research/umls/rxnorm","code":"855288"}]},"subject":{"reference":"Patient/8e2cfc29-0925-45b9-857f-b9ee9b9fa248"},"effectivePeriod":{"start":"2025-11-01T07:00:00+00:00"}},"request":{"method":"PUT","url":"MedicationAdministration/c04ebbab-fbb2-4e78-a9bc-22e1624d8087"}},{"fullUrl":"https://madie.cms.gov/Organization/123456","resource":{"resourceType":"Organization","id":"42846cc3-1db0-4bf7-b9ff-8b81fa6e835d","meta":{"profile":["http://hl7.org/fhir/us/qicore/StructureDefinition/qicore-organization"]},"identifier":[{"use":"temp","system":"urn:oid:2.16.840.1.113883.4.4","value":"21-3259825"}],"active":true,"type":[{"coding":[{"system":"http://terminology.hl7.org/CodeSystem/organization-type","code":"pay","display":"Payer"}]}],"name":"Blue Cross Blue Shield of Texas","telecom":[{"system":"phone","value":"(+1) 972-766-6900"}],"address":[{"use":"billing","type":"postal","line":["P.O. Box 660044"],"city":"Dallas","state":"TX","postalCode":"75266-0044","country":"USA"}]},"request":{"method":"PUT","url":"Organization/42846cc3-1db0-4bf7-b9ff-8b81fa6e835d"}},{"fullUrl":"https://madie.cms.gov/Practitioner/practitioner-123456","resource":{"resourceType":"Practitioner","id":"8aaa3bbf-477c-41ff-9ced-0ad3b6a31723","identifier":[{"system":"http://hl7.org/fhir/sid/us-npi","value":"123456"}],"name":[{"family":"Evil","prefix":["Dr"]}]},"request":{"method":"PUT","url":"Practitioner/8aaa3bbf-477c-41ff-9ced-0ad3b6a31723"}},{"fullUrl":"https://madie.cms.gov/MeasureReport/bd75e423-42bf-4109-9a2f-cdd61be2ff06","resource":{"resourceType":"MeasureReport","id":"bd75e423-42bf-4109-9a2f-cdd61be2ff06","meta":{"profile":["http://hl7.org/fhir/us/cqfmeasures/StructureDefinition/test-case-cqfm"]},"contained":[{"resourceType":"Parameters","id":"4f54e4c3-4986-4c5d-9b4f-e59b1c78d352-parameters","parameter":[{"name":"subject","valueString":"8e2cfc29-0925-45b9-857f-b9ee9b9fa248"}]}],"extension":[{"url":"http://hl7.org/fhir/us/cqfmeasures/StructureDefinition/cqfm-inputParameters","valueReference":{"reference":"#4f54e4c3-4986-4c5d-9b4f-e59b1c78d352-parameters"}},{"url":"http://hl7.org/fhir/us/cqfmeasures/StructureDefinition/cqfm-testCaseDescription","valueMarkdown":"medical reasons for not receiving IPC devices and warfarin in ED but ED is 2 hour before Adm\n"}],"modifierExtension":[{"url":"http://hl7.org/fhir/us/cqfmeasures/StructureDefinition/cqfm-isTestCase","valueBoolean":true}],"status":"complete","type":"individual","measure":"https://madie.cms.gov/Measure/VenousThromboembolismProphylaxisFHIR","period":{"start":"2025-01-01","end":"2025-12-31"},"group":[{"population":[{"code":{"coding":[{"system":"http://terminology.hl7.org/CodeSystem/measure-population","code":"initial-population","display":"Initial Population"}]},"count":1},{"code":{"coding":[{"system":"http://terminology.hl7.org/CodeSystem/measure-population","code":"denominator","display":"Denominator"}]},"count":1},{"code":{"coding":[{"system":"http://terminology.hl7.org/CodeSystem/measure-population","code":"denominator-exclusion","display":"Denominator Exclusion"}]},"count":0},{"code":{"coding":[{"system":"http://terminology.hl7.org/CodeSystem/measure-population","code":"numerator","display":"Numerator"}]},"count":1}]}]},"request":{"method":"PUT","url":"MeasureReport/bd75e423-42bf-4109-9a2f-cdd61be2ff06"}}]}