{"resourceType":"Bundle","id":"tests-dba7c9af-eb6f-4836-ba24-650a5acc87e7-bundle","type":"transaction","entry":[{"fullUrl":"https://madie.cms.gov/Patient/dba7c9af-eb6f-4836-ba24-650a5acc87e7","resource":{"resourceType":"Patient","id":"dba7c9af-eb6f-4836-ba24-650a5acc87e7","meta":{"profile":["http://hl7.org/fhir/us/qicore/StructureDefinition/qicore-patient"]},"text":{"status":"generated","div":"<div xmlns=\"http://www.w3.org/1999/xhtml\"><div class=\"hapiHeaderText\">MedReason_MO_InjXa_DA_VFP_DayAfAnes <b>NUMERPASS </b></div><table class=\"hapiPropertyTable\"><tbody><tr><td>Identifier</td><td>2e65528d235225a29036bb2a5e6ef1d4</td></tr><tr><td>Date of birth</td><td><span>02 January 1974</span></td></tr></tbody></table></div>"},"extension":[{"url":"http://hl7.org/fhir/us/core/StructureDefinition/us-core-race","extension":[{"url":"ombCategory","valueCoding":{"system":"urn:oid:2.16.840.1.113883.6.238","code":"1002-5","display":"American Indian or Alaska Native","userSelected":true}},{"url":"text","valueString":"American Indian or Alaska Native"}]},{"url":"http://hl7.org/fhir/us/core/StructureDefinition/us-core-ethnicity","extension":[{"url":"ombCategory","valueCoding":{"system":"urn:oid:2.16.840.1.113883.6.238","code":"2135-2","display":"Hispanic or Latino","userSelected":true}},{"url":"text","valueString":"Hispanic or Latino"}]}],"identifier":[{"type":{"coding":[{"system":"http://terminology.hl7.org/CodeSystem/v2-0203","code":"MR"}]},"system":"https://bonnie-fhir.healthit.gov/","value":"612e6a9302c62a011f2ea6da"}],"active":true,"name":[{"use":"usual","family":"NUMERPass","given":["MedReason_MA_InjXa_DA_VFP_DayAFAnes"]}],"gender":"male","birthDate":"1974-01-02"},"request":{"method":"PUT","url":"Patient/dba7c9af-eb6f-4836-ba24-650a5acc87e7"}},{"fullUrl":"https://madie.cms.gov/Encounter/5ca6295fb8484628b8de1dd5","resource":{"resourceType":"Encounter","id":"b6849de8-622f-440f-a7a1-2a0698e20f75","meta":{"profile":["http://hl7.org/fhir/us/qicore/StructureDefinition/qicore-encounter"]},"status":"finished","class":{"system":"http://terminology.hl7.org/CodeSystem/v3-ActCode","code":"IMP","display":"inpatient encounter"},"type":[{"coding":[{"system":"http://snomed.info/sct","code":"8715000"}]}],"subject":{"reference":"Patient/dba7c9af-eb6f-4836-ba24-650a5acc87e7"},"period":{"start":"2025-11-01T08:00:00+00:00","end":"2025-11-26T08:15:00+00:00"},"length":{"value":25.0,"unit":"days"}},"request":{"method":"PUT","url":"Encounter/b6849de8-622f-440f-a7a1-2a0698e20f75"}},{"fullUrl":"https://madie.cms.gov/Coverage/5fa041501c76ba66d99591f3","resource":{"resourceType":"Coverage","id":"c0ffe6d8-c69c-4f6c-8945-585698d2455d","status":"active","beneficiary":{"reference":"Patient/dba7c9af-eb6f-4836-ba24-650a5acc87e7"},"period":{"start":"1974-01-02T08:00:00+00:00"},"payor":[{"reference":"Organization/42846cc3-1db0-4bf7-b9ff-8b81fa6e835d"}]},"request":{"method":"PUT","url":"Coverage/c0ffe6d8-c69c-4f6c-8945-585698d2455d"}},{"fullUrl":"https://madie.cms.gov/Procedure/5ca6295fb8484628b8de1dd6","resource":{"resourceType":"Procedure","id":"8fd229f0-687f-479b-bd69-6903cef0937a","meta":{"profile":["http://hl7.org/fhir/us/qicore/StructureDefinition/qicore-procedurenotdone"]},"extension":[{"url":"http://hl7.org/fhir/us/qicore/StructureDefinition/qicore-recorded","valueDateTime":"2025-11-02T07:35:00-04:00"}],"status":"not-done","statusReason":{"coding":[{"system":"http://snomed.info/sct","code":"183932001","display":"Procedure contraindicated (situation)","userSelected":true}]},"code":{"coding":[{"system":"http://snomed.info/sct","code":"424831005","display":"Application of graduated compression garment (procedure)","userSelected":true}]},"subject":{"reference":"Patient/dba7c9af-eb6f-4836-ba24-650a5acc87e7"},"_performedDateTime":{"extension":[{"url":"http://hl7.org/fhir/StructureDefinition/data-absent-reason","valueCode":"not-performed"}]}},"request":{"method":"PUT","url":"Procedure/8fd229f0-687f-479b-bd69-6903cef0937a"}},{"fullUrl":"https://madie.cms.gov/MedicationRequest/5ca6295fb8484628b8de1dd7","resource":{"resourceType":"MedicationRequest","id":"0954ebc2-191a-4f11-913f-c7b6180279f6","meta":{"profile":["http://hl7.org/fhir/us/qicore/StructureDefinition/qicore-mednotrequested"]},"status":"completed","intent":"order","category":[{"coding":[{"system":"http://terminology.hl7.org/CodeSystem/medicationrequest-category","code":"community"}]}],"doNotPerform":true,"medicationCodeableConcept":{"coding":[{"system":"http://www.nlm.nih.gov/research/umls/rxnorm","code":"861363"}]},"subject":{"reference":"Patient/dba7c9af-eb6f-4836-ba24-650a5acc87e7"},"authoredOn":"2025-11-02T09:00:00+00:00","requester":{"reference":"Practitioner/example"},"reasonCode":[{"coding":[{"system":"http://snomed.info/sct","code":"183932001","display":"Procedure contraindicated (situation)","userSelected":true}]}],"dosageInstruction":[{"timing":{"repeat":{"boundsPeriod":{"start":"2025-11-03T09:00:00+00:00"}}}}]},"request":{"method":"PUT","url":"MedicationRequest/0954ebc2-191a-4f11-913f-c7b6180279f6"}},{"fullUrl":"https://madie.cms.gov/Procedure/5ca6295fb8484628b8de1dd8","resource":{"resourceType":"Procedure","id":"e6af01ea-4f92-4339-b44b-aef7fe9b5d9f","status":"completed","code":{"coding":[{"system":"http://snomed.info/sct","code":"18946005"}]},"subject":{"reference":"Patient/dba7c9af-eb6f-4836-ba24-650a5acc87e7"},"performedPeriod":{"start":"2025-11-02T09:00:00+00:00","end":"2025-11-02T09:15:00+00:00"}},"request":{"method":"PUT","url":"Procedure/e6af01ea-4f92-4339-b44b-aef7fe9b5d9f"}},{"fullUrl":"https://madie.cms.gov/Organization/123456","resource":{"resourceType":"Organization","id":"42846cc3-1db0-4bf7-b9ff-8b81fa6e835d","meta":{"profile":["http://hl7.org/fhir/us/qicore/StructureDefinition/qicore-organization"]},"identifier":[{"use":"temp","system":"urn:oid:2.16.840.1.113883.4.4","value":"21-3259825"}],"active":true,"type":[{"coding":[{"system":"http://terminology.hl7.org/CodeSystem/organization-type","code":"pay","display":"Payer"}]}],"name":"Blue Cross Blue Shield of Texas","telecom":[{"system":"phone","value":"(+1) 972-766-6900"}],"address":[{"use":"billing","type":"postal","line":["P.O. Box 660044"],"city":"Dallas","state":"TX","postalCode":"75266-0044","country":"USA"}]},"request":{"method":"PUT","url":"Organization/42846cc3-1db0-4bf7-b9ff-8b81fa6e835d"}},{"fullUrl":"https://madie.cms.gov/Practitioner/practitioner-123456","resource":{"resourceType":"Practitioner","id":"63d0f749-e90d-40d6-94b2-23654fb2f705","identifier":[{"system":"http://hl7.org/fhir/sid/us-npi","value":"123456"}],"name":[{"family":"Evil","prefix":["Dr"]}]},"request":{"method":"PUT","url":"Practitioner/63d0f749-e90d-40d6-94b2-23654fb2f705"}},{"fullUrl":"https://madie.cms.gov/MeasureReport/b3147698-0a8f-4382-908a-6b0d31a81fe7","resource":{"resourceType":"MeasureReport","id":"b3147698-0a8f-4382-908a-6b0d31a81fe7","meta":{"profile":["http://hl7.org/fhir/us/cqfmeasures/StructureDefinition/test-case-cqfm"]},"contained":[{"resourceType":"Parameters","id":"92cd99c8-e404-4bb7-ae13-e160a9abd3b7-parameters","parameter":[{"name":"subject","valueString":"dba7c9af-eb6f-4836-ba24-650a5acc87e7"}]}],"extension":[{"url":"http://hl7.org/fhir/us/cqfmeasures/StructureDefinition/cqfm-inputParameters","valueReference":{"reference":"#92cd99c8-e404-4bb7-ae13-e160a9abd3b7-parameters"}},{"url":"http://hl7.org/fhir/us/cqfmeasures/StructureDefinition/cqfm-testCaseDescription","valueMarkdown":"factor Xa and VFP not ordered due to medical reason <= 1 day after end of anesthesia\n"}],"modifierExtension":[{"url":"http://hl7.org/fhir/us/cqfmeasures/StructureDefinition/cqfm-isTestCase","valueBoolean":true}],"status":"complete","type":"individual","measure":"https://madie.cms.gov/Measure/VenousThromboembolismProphylaxisFHIR","period":{"start":"2025-01-01","end":"2025-12-31"},"group":[{"population":[{"code":{"coding":[{"system":"http://terminology.hl7.org/CodeSystem/measure-population","code":"initial-population","display":"Initial Population"}]},"count":1},{"code":{"coding":[{"system":"http://terminology.hl7.org/CodeSystem/measure-population","code":"denominator","display":"Denominator"}]},"count":1},{"code":{"coding":[{"system":"http://terminology.hl7.org/CodeSystem/measure-population","code":"denominator-exclusion","display":"Denominator Exclusion"}]},"count":0},{"code":{"coding":[{"system":"http://terminology.hl7.org/CodeSystem/measure-population","code":"numerator","display":"Numerator"}]},"count":1}]}]},"request":{"method":"PUT","url":"MeasureReport/b3147698-0a8f-4382-908a-6b0d31a81fe7"}}]}