{"resourceType":"Bundle","id":"tests-2de13e4e-32bf-4b79-8750-9e0820d2eb4d-bundle","type":"transaction","entry":[{"fullUrl":"https://madie.cms.gov/Patient/2de13e4e-32bf-4b79-8750-9e0820d2eb4d","resource":{"resourceType":"Patient","id":"2de13e4e-32bf-4b79-8750-9e0820d2eb4d","meta":{"profile":["http://hl7.org/fhir/us/qicore/StructureDefinition/qicore-patient"]},"text":{"status":"generated","div":"<div xmlns=\"http://www.w3.org/1999/xhtml\"><div class=\"hapiHeaderText\">PtRef_MA_LMWH_OBS <b>NUMERPASS </b></div><table class=\"hapiPropertyTable\"><tbody><tr><td>Identifier</td><td>3dc4a512478cd906257a70aca14edeef</td></tr><tr><td>Date of birth</td><td><span>02 January 1974</span></td></tr></tbody></table></div>"},"extension":[{"url":"http://hl7.org/fhir/us/core/StructureDefinition/us-core-race","extension":[{"url":"ombCategory","valueCoding":{"system":"urn:oid:2.16.840.1.113883.6.238","code":"1002-5","display":"American Indian or Alaska Native","userSelected":true}},{"url":"text","valueString":"American Indian or Alaska Native"}]},{"url":"http://hl7.org/fhir/us/core/StructureDefinition/us-core-ethnicity","extension":[{"url":"ombCategory","valueCoding":{"system":"urn:oid:2.16.840.1.113883.6.238","code":"2135-2","display":"Hispanic or Latino","userSelected":true}},{"url":"text","valueString":"Hispanic or Latino"}]}],"identifier":[{"type":{"coding":[{"system":"http://terminology.hl7.org/CodeSystem/v2-0203","code":"MR"}]},"system":"https://bonnie-fhir.healthit.gov/","value":"612e6aaf02c62a011f2eaee7"}],"active":true,"name":[{"use":"usual","family":"NUMERPass","given":["PtRef_MA_LMWH_OBS"]}],"gender":"male","birthDate":"1974-01-02"},"request":{"method":"PUT","url":"Patient/2de13e4e-32bf-4b79-8750-9e0820d2eb4d"}},{"fullUrl":"https://madie.cms.gov/Encounter/5ca62960b8484628b8de1e40","resource":{"resourceType":"Encounter","id":"e3db4c9b-932f-476f-bdc6-7ad7ecb121bc","meta":{"profile":["http://hl7.org/fhir/us/qicore/StructureDefinition/qicore-encounter"]},"status":"finished","class":{"system":"http://terminology.hl7.org/CodeSystem/v3-ActCode","code":"OBSENC","display":"observation encounter"},"type":[{"coding":[{"system":"http://snomed.info/sct","code":"448951000124107"}]}],"subject":{"reference":"Patient/2de13e4e-32bf-4b79-8750-9e0820d2eb4d"},"period":{"start":"2025-10-31T05:00:00+00:00","end":"2025-11-01T07:15:00+00:00"},"length":{"value":1,"unit":"days"}},"request":{"method":"PUT","url":"Encounter/e3db4c9b-932f-476f-bdc6-7ad7ecb121bc"}},{"fullUrl":"https://madie.cms.gov/Encounter/5ca62960b8484628b8de1e41","resource":{"resourceType":"Encounter","id":"e901717d-6c49-4dea-b60c-3862ffa12a2a","meta":{"profile":["http://hl7.org/fhir/us/qicore/StructureDefinition/qicore-encounter"]},"status":"finished","class":{"system":"http://terminology.hl7.org/CodeSystem/v3-ActCode","code":"IMP","display":"inpatient encounter"},"type":[{"coding":[{"system":"http://snomed.info/sct","code":"8715000"}]}],"subject":{"reference":"Patient/2de13e4e-32bf-4b79-8750-9e0820d2eb4d"},"period":{"start":"2025-11-01T08:00:00+00:00","end":"2025-11-26T08:15:00+00:00"},"length":{"value":25,"unit":"days"}},"request":{"method":"PUT","url":"Encounter/e901717d-6c49-4dea-b60c-3862ffa12a2a"}},{"fullUrl":"https://madie.cms.gov/Coverage/5fa041561c76ba66d995924d","resource":{"resourceType":"Coverage","id":"bcdbf6cc-ecfe-4714-9580-a0eaf7394ac0","status":"active","beneficiary":{"reference":"Patient/2de13e4e-32bf-4b79-8750-9e0820d2eb4d"},"period":{"start":"1974-01-02T08:00:00+00:00"},"payor":[{"reference":"Organization/42846cc3-1db0-4bf7-b9ff-8b81fa6e835d"}]},"request":{"method":"PUT","url":"Coverage/bcdbf6cc-ecfe-4714-9580-a0eaf7394ac0"}},{"fullUrl":"https://madie.cms.gov/MedicationAdministration/5ca62960b8484628b8de1e42","resource":{"resourceType":"MedicationAdministration","id":"8592d864-9ac6-44b7-8ea9-be9771bdd28b","meta":{"profile":["http://hl7.org/fhir/us/qicore/StructureDefinition/qicore-mednotadministered"]},"extension":[{"url":"http://hl7.org/fhir/us/qicore/StructureDefinition/qicore-recorded","valueDateTime":"2025-11-02T11:00:00+00:00"}],"status":"not-done","statusReason":[{"coding":[{"system":"http://snomed.info/sct","code":"443390004","display":"Refusal of treatment by patient (situation)"}]}],"medicationCodeableConcept":{"coding":[{"system":"http://www.nlm.nih.gov/research/umls/rxnorm","code":"854228"}]},"subject":{"reference":"Patient/2de13e4e-32bf-4b79-8750-9e0820d2eb4d"},"effectivePeriod":{"start":"2025-11-01T06:00:00+00:00"}},"request":{"method":"PUT","url":"MedicationAdministration/8592d864-9ac6-44b7-8ea9-be9771bdd28b"}},{"fullUrl":"https://madie.cms.gov/Organization/123456","resource":{"resourceType":"Organization","id":"42846cc3-1db0-4bf7-b9ff-8b81fa6e835d","meta":{"profile":["http://hl7.org/fhir/us/qicore/StructureDefinition/qicore-organization"]},"identifier":[{"use":"temp","system":"urn:oid:2.16.840.1.113883.4.4","value":"21-3259825"}],"active":true,"type":[{"coding":[{"system":"http://terminology.hl7.org/CodeSystem/organization-type","code":"pay","display":"Payer"}]}],"name":"Blue Cross Blue Shield of Texas","telecom":[{"system":"phone","value":"(+1) 972-766-6900"}],"address":[{"use":"billing","type":"postal","line":["P.O. Box 660044"],"city":"Dallas","state":"TX","postalCode":"75266-0044","country":"USA"}]},"request":{"method":"PUT","url":"Organization/42846cc3-1db0-4bf7-b9ff-8b81fa6e835d"}},{"fullUrl":"https://madie.cms.gov/Practitioner/practitioner-123456","resource":{"resourceType":"Practitioner","id":"7ff40535-5cbd-49f1-8b13-2d8b53b6efcc","identifier":[{"system":"http://hl7.org/fhir/sid/us-npi","value":"123456"}],"name":[{"family":"Evil","prefix":["Dr"]}]},"request":{"method":"PUT","url":"Practitioner/7ff40535-5cbd-49f1-8b13-2d8b53b6efcc"}},{"fullUrl":"https://madie.cms.gov/MeasureReport/38be5744-7dc7-4542-b24f-618427fcf68c","resource":{"resourceType":"MeasureReport","id":"38be5744-7dc7-4542-b24f-618427fcf68c","meta":{"profile":["http://hl7.org/fhir/us/cqfmeasures/StructureDefinition/test-case-cqfm"]},"contained":[{"resourceType":"Parameters","id":"6bc863e6-c456-4d24-a649-8bbe094a0bd3-parameters","parameter":[{"name":"subject","valueString":"2de13e4e-32bf-4b79-8750-9e0820d2eb4d"}]}],"extension":[{"url":"http://hl7.org/fhir/us/cqfmeasures/StructureDefinition/cqfm-inputParameters","valueReference":{"reference":"#6bc863e6-c456-4d24-a649-8bbe094a0bd3-parameters"}},{"url":"http://hl7.org/fhir/us/cqfmeasures/StructureDefinition/cqfm-testCaseDescription","valueMarkdown":"lmwh not given due to patient refusal during Observation\n"}],"modifierExtension":[{"url":"http://hl7.org/fhir/us/cqfmeasures/StructureDefinition/cqfm-isTestCase","valueBoolean":true}],"status":"complete","type":"individual","measure":"https://madie.cms.gov/Measure/VenousThromboembolismProphylaxisFHIR","period":{"start":"2025-01-01","end":"2025-12-31"},"group":[{"population":[{"code":{"coding":[{"system":"http://terminology.hl7.org/CodeSystem/measure-population","code":"initial-population","display":"Initial Population"}]},"count":1},{"code":{"coding":[{"system":"http://terminology.hl7.org/CodeSystem/measure-population","code":"denominator","display":"Denominator"}]},"count":1},{"code":{"coding":[{"system":"http://terminology.hl7.org/CodeSystem/measure-population","code":"denominator-exclusion","display":"Denominator Exclusion"}]},"count":0},{"code":{"coding":[{"system":"http://terminology.hl7.org/CodeSystem/measure-population","code":"numerator","display":"Numerator"}]},"count":1}]}]},"request":{"method":"PUT","url":"MeasureReport/38be5744-7dc7-4542-b24f-618427fcf68c"}}]}