{"resourceType":"Bundle","id":"tests-1701c7fe-de21-4bb9-8404-92cb1ef4e638-bundle","type":"transaction","entry":[{"fullUrl":"https://madie.cms.gov/Patient/1701c7fe-de21-4bb9-8404-92cb1ef4e638","resource":{"resourceType":"Patient","id":"1701c7fe-de21-4bb9-8404-92cb1ef4e638","meta":{"profile":["http://hl7.org/fhir/us/qicore/StructureDefinition/qicore-patient"]},"text":{"status":"generated","div":"<div xmlns=\"http://www.w3.org/1999/xhtml\"><div class=\"hapiHeaderText\">PtRef_MO_Warf_EDendTimeEQEncStartTime <b>NUMERPASS </b></div><table class=\"hapiPropertyTable\"><tbody><tr><td>Identifier</td><td>35e854fe06e36e7e02449812c3316da3</td></tr><tr><td>Date of birth</td><td><span>02 January 1974</span></td></tr></tbody></table></div>"},"extension":[{"url":"http://hl7.org/fhir/us/core/StructureDefinition/us-core-race","extension":[{"url":"ombCategory","valueCoding":{"system":"urn:oid:2.16.840.1.113883.6.238","code":"1002-5","display":"American Indian or Alaska Native","userSelected":true}},{"url":"text","valueString":"American Indian or Alaska Native"}]},{"url":"http://hl7.org/fhir/us/core/StructureDefinition/us-core-ethnicity","extension":[{"url":"ombCategory","valueCoding":{"system":"urn:oid:2.16.840.1.113883.6.238","code":"2135-2","display":"Hispanic or Latino","userSelected":true}},{"url":"text","valueString":"Hispanic or Latino"}]}],"identifier":[{"type":{"coding":[{"system":"http://terminology.hl7.org/CodeSystem/v2-0203","code":"MR"}]},"system":"https://bonnie-fhir.healthit.gov/","value":"612e6b5002c62a011f2ed433"}],"active":true,"name":[{"use":"usual","family":"NUMERPass","given":["PtRef_MO_Warf_EDendTimeEQEncStartTime"]}],"gender":"male","birthDate":"1974-01-02"},"request":{"method":"PUT","url":"Patient/1701c7fe-de21-4bb9-8404-92cb1ef4e638"}},{"fullUrl":"https://madie.cms.gov/Encounter/5ca62961b8484628b8de1e7d","resource":{"resourceType":"Encounter","id":"5f8c561f-a7fd-4b9d-9398-cb5f5584b545","meta":{"profile":["http://hl7.org/fhir/us/qicore/StructureDefinition/qicore-encounter"]},"status":"finished","class":{"system":"http://terminology.hl7.org/CodeSystem/v3-ActCode","code":"EMER","display":"emergency"},"type":[{"coding":[{"system":"http://snomed.info/sct","code":"4525004"}]}],"subject":{"reference":"Patient/1701c7fe-de21-4bb9-8404-92cb1ef4e638"},"period":{"start":"2025-10-31T05:00:00+00:00","end":"2025-11-01T08:00:00+00:00"},"length":{"value":1,"unit":"days"}},"request":{"method":"PUT","url":"Encounter/5f8c561f-a7fd-4b9d-9398-cb5f5584b545"}},{"fullUrl":"https://madie.cms.gov/Encounter/5ca62961b8484628b8de1e7e","resource":{"resourceType":"Encounter","id":"f3da7d8e-b8a9-4819-b68f-692836cd4bbe","meta":{"profile":["http://hl7.org/fhir/us/qicore/StructureDefinition/qicore-encounter"]},"status":"finished","class":{"system":"http://terminology.hl7.org/CodeSystem/v3-ActCode","code":"IMP","display":"inpatient encounter"},"type":[{"coding":[{"system":"http://snomed.info/sct","code":"8715000"}]}],"subject":{"reference":"Patient/1701c7fe-de21-4bb9-8404-92cb1ef4e638"},"period":{"start":"2025-11-01T08:00:00+00:00","end":"2025-11-26T08:15:00+00:00"},"length":{"value":25,"unit":"days"}},"request":{"method":"PUT","url":"Encounter/f3da7d8e-b8a9-4819-b68f-692836cd4bbe"}},{"fullUrl":"https://madie.cms.gov/Coverage/5fa041591c76ba66d995928c","resource":{"resourceType":"Coverage","id":"9c9f94ba-7b24-48a2-81fd-023b018b21b9","status":"active","beneficiary":{"reference":"Patient/1701c7fe-de21-4bb9-8404-92cb1ef4e638"},"period":{"start":"1974-01-02T08:00:00+00:00"},"payor":[{"reference":"Organization/42846cc3-1db0-4bf7-b9ff-8b81fa6e835d"}]},"request":{"method":"PUT","url":"Coverage/9c9f94ba-7b24-48a2-81fd-023b018b21b9"}},{"fullUrl":"https://madie.cms.gov/MedicationRequest/5ca6295fb8484628b8de1dd7","resource":{"resourceType":"MedicationRequest","id":"6112b5ec-b9cb-4f81-8f12-5473cc15c36e","meta":{"profile":["http://hl7.org/fhir/us/qicore/StructureDefinition/qicore-mednotrequested"]},"status":"completed","intent":"order","category":[{"coding":[{"system":"http://terminology.hl7.org/CodeSystem/medicationrequest-category","code":"community"}]}],"doNotPerform":true,"medicationCodeableConcept":{"coding":[{"system":"http://www.nlm.nih.gov/research/umls/rxnorm","code":"855288"}]},"subject":{"reference":"Patient/1701c7fe-de21-4bb9-8404-92cb1ef4e638"},"authoredOn":"2025-11-01T07:00:00+00:00","requester":{"reference":"Practitioner/example"},"reasonCode":[{"coding":[{"system":"http://snomed.info/sct","code":"443390004","display":"Refusal of treatment by patient (situation)","userSelected":true}]}],"dosageInstruction":[{"timing":{"repeat":{"boundsPeriod":{"start":"2025-11-03T09:00:00+00:00"}}}}]},"request":{"method":"PUT","url":"MedicationRequest/6112b5ec-b9cb-4f81-8f12-5473cc15c36e"}},{"fullUrl":"https://madie.cms.gov/Organization/123456","resource":{"resourceType":"Organization","id":"42846cc3-1db0-4bf7-b9ff-8b81fa6e835d","meta":{"profile":["http://hl7.org/fhir/us/qicore/StructureDefinition/qicore-organization"]},"identifier":[{"use":"temp","system":"urn:oid:2.16.840.1.113883.4.4","value":"21-3259825"}],"active":true,"type":[{"coding":[{"system":"http://terminology.hl7.org/CodeSystem/organization-type","code":"pay","display":"Payer"}]}],"name":"Blue Cross Blue Shield of Texas","telecom":[{"system":"phone","value":"(+1) 972-766-6900"}],"address":[{"use":"billing","type":"postal","line":["P.O. Box 660044"],"city":"Dallas","state":"TX","postalCode":"75266-0044","country":"USA"}]},"request":{"method":"PUT","url":"Organization/42846cc3-1db0-4bf7-b9ff-8b81fa6e835d"}},{"fullUrl":"https://madie.cms.gov/Practitioner/practitioner-123456","resource":{"resourceType":"Practitioner","id":"b2420622-b281-4a26-a3a4-6c630f618126","identifier":[{"system":"http://hl7.org/fhir/sid/us-npi","value":"123456"}],"name":[{"family":"Evil","prefix":["Dr"]}]},"request":{"method":"PUT","url":"Practitioner/b2420622-b281-4a26-a3a4-6c630f618126"}},{"fullUrl":"https://madie.cms.gov/MeasureReport/ef821dae-e371-49e2-a172-c6ef270cd82f","resource":{"resourceType":"MeasureReport","id":"ef821dae-e371-49e2-a172-c6ef270cd82f","meta":{"profile":["http://hl7.org/fhir/us/cqfmeasures/StructureDefinition/test-case-cqfm"]},"contained":[{"resourceType":"Parameters","id":"d770e8da-7c5b-4413-bdd5-9d3085d87a9b-parameters","parameter":[{"name":"subject","valueString":"1701c7fe-de21-4bb9-8404-92cb1ef4e638"}]}],"extension":[{"url":"http://hl7.org/fhir/us/cqfmeasures/StructureDefinition/cqfm-inputParameters","valueReference":{"reference":"#d770e8da-7c5b-4413-bdd5-9d3085d87a9b-parameters"}},{"url":"http://hl7.org/fhir/us/cqfmeasures/StructureDefinition/cqfm-testCaseDescription","valueMarkdown":"\">18, ED visits before encounter, medication not order(Warfarin ), patient refused during the ED encounter.  ED endTime concurrent w EncInp startTime.\n\"\n"}],"modifierExtension":[{"url":"http://hl7.org/fhir/us/cqfmeasures/StructureDefinition/cqfm-isTestCase","valueBoolean":true}],"status":"complete","type":"individual","measure":"https://madie.cms.gov/Measure/VenousThromboembolismProphylaxisFHIR","period":{"start":"2025-01-01","end":"2025-12-31"},"group":[{"population":[{"code":{"coding":[{"system":"http://terminology.hl7.org/CodeSystem/measure-population","code":"initial-population","display":"Initial Population"}]},"count":1},{"code":{"coding":[{"system":"http://terminology.hl7.org/CodeSystem/measure-population","code":"denominator","display":"Denominator"}]},"count":1},{"code":{"coding":[{"system":"http://terminology.hl7.org/CodeSystem/measure-population","code":"denominator-exclusion","display":"Denominator Exclusion"}]},"count":0},{"code":{"coding":[{"system":"http://terminology.hl7.org/CodeSystem/measure-population","code":"numerator","display":"Numerator"}]},"count":1}]}]},"request":{"method":"PUT","url":"MeasureReport/ef821dae-e371-49e2-a172-c6ef270cd82f"}}]}