{
  "resourceType": "Bundle",
  "id": "ScreNotatriRefAsseModDxNocp2",
  "type": "transaction",
  "entry": [
    {
      "fullUrl": "https://madie.cms.gov/Patient/f449a1ea-36de-44cf-b9ae-7c9f4ec48f20",
      "resource": {
        "resourceType": "Patient",
        "id": "f449a1ea-36de-44cf-b9ae-7c9f4ec48f20",
        "meta": {
          "profile": [
            "http://hl7.org/fhir/us/qicore/StructureDefinition/qicore-patient"
          ]
        },
        "text": {
          "status": "generated",
          "div": "<div xmlns=\"http://www.w3.org/1999/xhtml\"><div class=\"hapiHeaderText\">ScreNotatriRefAsseModDxNocp2, , <b> </b></div><table class=\"hapiPropertyTable\"><tbody><tr><td>Identifier</td><td>ScreNotatriRefAsseModDxNocp2</td></tr><tr><td>Date of birth</td><td><span>14 May 1950</span></td></tr></tbody></table></div>"
        },
        "extension": [
          {
            "url": "http://hl7.org/fhir/us/core/StructureDefinition/us-core-race",
            "extension": [
              {
                "url": "ombCategory",
                "valueCoding": {
                  "system": "urn:oid:2.16.840.1.113883.6.238",
                  "code": "2106-3",
                  "display": "White",
                  "userSelected": true
                }
              },
              {
                "url": "text",
                "valueString": "White"
              }
            ]
          },
          {
            "url": "http://hl7.org/fhir/us/core/StructureDefinition/us-core-ethnicity",
            "extension": [
              {
                "url": "ombCategory",
                "valueCoding": {
                  "system": "urn:oid:2.16.840.1.113883.6.238",
                  "code": "2186-5",
                  "display": "Not Hispanic or Latino",
                  "userSelected": true
                }
              },
              {
                "url": "text",
                "valueString": "Not Hispanic or Latino"
              }
            ]
          }
        ],
        "identifier": [
          {
            "type": {
              "coding": [
                {
                  "system": "http://terminology.hl7.org/CodeSystem/v2-0203",
                  "code": "MR"
                }
              ]
            },
            "system": "https://madie.cms.gov/",
            "value": "ScreNotatriRefAsseModDxNocp2"
          }
        ],
        "active": true,
        "name": [
          {
            "use": "usual",
            "text": "ScreNotatriRefAsseModDxNocp2",
            "family": "DENOMPass4",
            "given": [
              "ScreNotatriRefAsseModDxNocp2DENOMPass4"
            ]
          }
        ],
        "gender": "female",
        "birthDate": "1950-05-14",
        "address": [
          {
            "text": "ScreNotatriRefAsseModDxNocp2, Screened Not at risk Assessed Severely Malnourished Diagnosed Care Plan, ID=ScreNotatriRefAsseModDxNocp2, DOB: 14 May 1950"
          }
        ]
      },
      "request": {
        "method": "PUT",
        "url": "Patient/f449a1ea-36de-44cf-b9ae-7c9f4ec48f20"
      }
    },
    {
      "fullUrl": "https://madie.cms.gov/Encounter/ff186981-a021-4749-922c-a98dd79584a7",
      "resource": {
        "resourceType": "Encounter",
        "id": "ff186981-a021-4749-922c-a98dd79584a7",
        "meta": {
          "profile": [
            "http://hl7.org/fhir/us/qicore/StructureDefinition/qicore-encounter"
          ]
        },
        "status": "finished",
        "class": {
          "system": "http://terminology.hl7.org/CodeSystem/v3-ActCode",
          "code": "IMP",
          "display": "inpatient encounter"
        },
        "type": [
          {
            "coding": [
              {
                "system": "http://snomed.info/sct",
                "code": "183452005"
              }
            ]
          }
        ],
        "subject": {
          "reference": "Patient/f449a1ea-36de-44cf-b9ae-7c9f4ec48f20"
        },
        "period": {
          "start": "2026-02-01T08:00:00.000Z",
          "end": "2026-02-07T08:15:00.000Z"
        }
      },
      "request": {
        "method": "PUT",
        "url": "Encounter/ff186981-a021-4749-922c-a98dd79584a7"
      }
    },
    {
      "fullUrl": "https://madie.cms.gov/Condition/d57bca4e-1ead-41b8-a722-7456fbc664d2",
      "resource": {
        "resourceType": "Condition",
        "id": "d57bca4e-1ead-41b8-a722-7456fbc664d2",
        "meta": {
          "profile": [
            "http://hl7.org/fhir/us/qicore/StructureDefinition/qicore-condition"
          ]
        },
        "clinicalStatus": {
          "coding": [
            {
              "system": "http://terminology.hl7.org/CodeSystem/condition-clinical",
              "code": "active",
              "display": "Active",
              "userSelected": true
            }
          ]
        },
        "verificationStatus": {
          "coding": [
            {
              "system": "http://terminology.hl7.org/CodeSystem/condition-ver-status",
              "code": "confirmed",
              "display": "Confirmed",
              "userSelected": true
            }
          ]
        },
        "category": [
          {
            "coding": [
              {
                "system": "http://terminology.hl7.org/CodeSystem/condition-category",
                "code": "encounter-diagnosis",
                "display": "Encounter Diagnosis",
                "userSelected": true
              }
            ]
          }
        ],
        "code": {
          "coding": [
            {
              "system": "http://snomed.info/sct",
              "code": "190606006",
              "display": "Moderate protein energy malnutrition (disorder)",
              "userSelected": true
            }
          ]
        },
        "subject": {
          "reference": "Patient/f449a1ea-36de-44cf-b9ae-7c9f4ec48f20"
        },
        "onsetPeriod": {
          "start": "2026-02-01T08:00:00.000+00:00"
        },
        "recordedDate": "2026-02-01T11:00:00.000+00:00"
      },
      "request": {
        "method": "PUT",
        "url": "Condition/d57bca4e-1ead-41b8-a722-7456fbc664d2"
      }
    },
    {
      "fullUrl": "https://madie.cms.gov/Observation/d70426fb-5d44-4ed6-a0a3-29798002f97d",
      "resource": {
        "resourceType": "Observation",
        "id": "d70426fb-5d44-4ed6-a0a3-29798002f97d",
        "meta": {
          "profile": [
            "http://hl7.org/fhir/us/qicore/StructureDefinition/qicore-observation"
          ]
        },
        "status": "final",
        "category": [
          {
            "coding": [
              {
                "system": "http://terminology.hl7.org/CodeSystem/observation-category",
                "code": "survey",
                "display": "Survey"
              }
            ]
          }
        ],
        "code": {
          "coding": [
            {
              "system": "http://loinc.org",
              "code": "98967-3",
              "display": "Nutritional Risk Screening 2002 panel",
              "userSelected": true
            }
          ]
        },
        "subject": {
          "reference": "Patient/f449a1ea-36de-44cf-b9ae-7c9f4ec48f20"
        },
        "effectiveDateTime": "2026-02-01T09:00:00.000+00:00",
        "valueCodeableConcept": {
          "coding": [
            {
              "system": "http://snomed.info/sct",
              "code": "36823005",
              "display": "Normal diet (finding)",
              "userSelected": true
            }
          ]
        }
      },
      "request": {
        "method": "PUT",
        "url": "Observation/d70426fb-5d44-4ed6-a0a3-29798002f97d"
      }
    },
    {
      "fullUrl": "https://madie.cms.gov/Observation/6738eb9e-1ff1-4a28-af89-eb64b325f42c",
      "resource": {
        "resourceType": "Observation",
        "id": "6738eb9e-1ff1-4a28-af89-eb64b325f42c",
        "meta": {
          "profile": [
            "http://hl7.org/fhir/us/qicore/StructureDefinition/qicore-observation"
          ]
        },
        "status": "final",
        "category": [
          {
            "coding": [
              {
                "system": "http://terminology.hl7.org/CodeSystem/observation-category",
                "code": "survey",
                "display": "Survey"
              }
            ]
          }
        ],
        "code": {
          "coding": [
            {
              "system": "http://loinc.org",
              "code": "75304-6",
              "display": "Nutrition status observation panel",
              "userSelected": true
            }
          ]
        },
        "subject": {
          "reference": "Patient/f449a1ea-36de-44cf-b9ae-7c9f4ec48f20"
        },
        "effectiveDateTime": "2026-02-01T10:00:00.000+00:00",
        "valueCodeableConcept": {
          "coding": [
            {
              "system": "http://snomed.info/sct",
              "code": "448765001",
              "display": "Unintentional weight loss (finding)",
              "userSelected": true
            }
          ]
        }
      },
      "request": {
        "method": "PUT",
        "url": "Observation/6738eb9e-1ff1-4a28-af89-eb64b325f42c"
      }
    },
    {
      "fullUrl": "https://madie.cms.gov/Procedure/2a0b7677-0282-41ff-b0e9-4e1225e760ab",
      "resource": {
        "resourceType": "Procedure",
        "id": "2a0b7677-0282-41ff-b0e9-4e1225e760ab",
        "meta": {
          "profile": [
            "http://hl7.org/fhir/us/qicore/StructureDefinition/qicore-procedure"
          ]
        },
        "extension": [
          {
            "url": "http://hl7.org/fhir/us/qicore/StructureDefinition/qicore-recorded",
            "valueDateTime": "2026-02-01T11:30:00.000Z"
          }
        ],
        "status": "completed",
        "code": {
          "coding": [
            {
              "system": "http://snomed.info/sct",
              "code": "306354000",
              "display": "Referral to hospital-based dietitian (procedure)"
            }
          ],
          "text": "Referral to hospital-based dietitian (procedure)"
        },
        "subject": {
          "reference": "Patient/f449a1ea-36de-44cf-b9ae-7c9f4ec48f20"
        },
        "encounter": {
          "reference": "Encounter/ScreNotatriRefAsseModDxNocp2"
        },
        "performedPeriod": {
          "start": "2026-02-01T11:30:00.000Z",
          "end": "2026-02-07T08:15:00.000Z"
        }
      },
      "request": {
        "method": "PUT",
        "url": "Procedure/2a0b7677-0282-41ff-b0e9-4e1225e760ab"
      }
    },
    {
      "fullUrl": "https://madie.cms.gov/Coverage/549377b2-28e4-4d13-8f09-70f29fc678bd",
      "resource": {
        "resourceType": "Coverage",
        "id": "549377b2-28e4-4d13-8f09-70f29fc678bd",
        "meta": {
          "profile": [
            "http://hl7.org/fhir/us/qicore/StructureDefinition/qicore-coverage"
          ]
        },
        "status": "active",
        "type": {
          "coding": [
            {
              "system": "https://nahdo.org/sopt",
              "version": "9.2",
              "code": "11",
              "display": "Medicare Managed Care (Includes Medicare Advantage Plans)"
            }
          ]
        },
        "beneficiary": {
          "reference": "Patient/f449a1ea-36de-44cf-b9ae-7c9f4ec48f20"
        },
        "period": {
          "start": "2025-10-01T00:00:00+00:00"
        },
        "payor": [
          {
            "reference": "Organization/441a7088-efaf-4b15-b164-79c9834ba772"
          }
        ]
      },
      "request": {
        "method": "PUT",
        "url": "Coverage/549377b2-28e4-4d13-8f09-70f29fc678bd"
      }
    },
    {
      "fullUrl": "https://madie.cms.gov/Organization/441a7088-efaf-4b15-b164-79c9834ba772",
      "resource": {
        "resourceType": "Organization",
        "id": "441a7088-efaf-4b15-b164-79c9834ba772",
        "meta": {
          "profile": [
            "http://hl7.org/fhir/us/qicore/StructureDefinition/qicore-organization"
          ]
        },
        "identifier": [
          {
            "use": "temp",
            "system": "urn:oid:2.16.840.1.113883.4.4",
            "value": "21-3259825"
          }
        ],
        "active": true,
        "type": [
          {
            "coding": [
              {
                "system": "http://terminology.hl7.org/CodeSystem/organization-type",
                "code": "pay",
                "display": "Payer"
              }
            ]
          }
        ],
        "name": "Blue Cross Blue Shield of Texas",
        "telecom": [
          {
            "system": "phone",
            "value": "(+1) 972-766-6900"
          }
        ],
        "address": [
          {
            "use": "billing",
            "type": "postal",
            "line": [
              "P.O. Box 660044"
            ],
            "city": "Dallas",
            "state": "TX",
            "postalCode": "75266-0044",
            "country": "USA"
          }
        ]
      },
      "request": {
        "method": "PUT",
        "url": "Organization/441a7088-efaf-4b15-b164-79c9834ba772"
      }
    },
    {
      "fullUrl": "https://madie.cms.gov/MeasureReport/56ea3b7c-2e2d-46db-83d0-737aa47a0e93",
      "resource": {
        "resourceType": "MeasureReport",
        "id": "56ea3b7c-2e2d-46db-83d0-737aa47a0e93",
        "meta": {
          "profile": [
            "http://hl7.org/fhir/us/cqfmeasures/StructureDefinition/test-case-cqfm"
          ]
        },
        "contained": [
          {
            "resourceType": "Parameters",
            "id": "e9ae66c1-2454-4e53-ba65-42648253aee3-parameters",
            "parameter": [
              {
                "name": "subject",
                "valueString": "f449a1ea-36de-44cf-b9ae-7c9f4ec48f20"
              }
            ]
          }
        ],
        "extension": [
          {
            "url": "http://hl7.org/fhir/us/cqfmeasures/StructureDefinition/cqfm-inputParameters",
            "valueReference": {
              "reference": "#e9ae66c1-2454-4e53-ba65-42648253aee3-parameters"
            }
          },
          {
            "url": "http://hl7.org/fhir/us/cqfmeasures/StructureDefinition/cqfm-testCaseDescription",
            "valueMarkdown": "Screened, Not at Risk, Referral, Assessed, Moderately Malnourished, Diagnosis, No Nutrition Care Plan"
          }
        ],
        "modifierExtension": [
          {
            "url": "http://hl7.org/fhir/us/cqfmeasures/StructureDefinition/cqfm-isTestCase",
            "valueBoolean": true
          }
        ],
        "status": "complete",
        "type": "individual",
        "measure": "https://madie.cms.gov/Measure/GlobalMalnutritionCompositeFHIR",
        "period": {
          "start": "2026-01-01",
          "end": "2026-12-31"
        },
        "group": [
          {
            "population": [
              {
                "code": {
                  "coding": [
                    {
                      "system": "http://terminology.hl7.org/CodeSystem/measure-population",
                      "code": "initial-population",
                      "display": "Initial Population"
                    }
                  ]
                },
                "count": 1
              },
              {
                "code": {
                  "coding": [
                    {
                      "system": "http://terminology.hl7.org/CodeSystem/measure-population",
                      "code": "measure-population",
                      "display": "Measure Population"
                    }
                  ]
                },
                "count": 1
              },
              {
                "code": {
                  "coding": [
                    {
                      "system": "http://terminology.hl7.org/CodeSystem/measure-population",
                      "code": "measure-population-observation",
                      "display": "Measure Population Observation"
                    }
                  ]
                },
                "count": 1
              }
            ]
          },
          {
            "population": [
              {
                "code": {
                  "coding": [
                    {
                      "system": "http://terminology.hl7.org/CodeSystem/measure-population",
                      "code": "initial-population",
                      "display": "Initial Population"
                    }
                  ]
                },
                "count": 1
              },
              {
                "code": {
                  "coding": [
                    {
                      "system": "http://terminology.hl7.org/CodeSystem/measure-population",
                      "code": "measure-population",
                      "display": "Measure Population"
                    }
                  ]
                },
                "count": 1
              },
              {
                "code": {
                  "coding": [
                    {
                      "system": "http://terminology.hl7.org/CodeSystem/measure-population",
                      "code": "measure-population-observation",
                      "display": "Measure Population Observation"
                    }
                  ]
                },
                "count": 1
              }
            ]
          },
          {
            "population": [
              {
                "code": {
                  "coding": [
                    {
                      "system": "http://terminology.hl7.org/CodeSystem/measure-population",
                      "code": "initial-population",
                      "display": "Initial Population"
                    }
                  ]
                },
                "count": 1
              },
              {
                "code": {
                  "coding": [
                    {
                      "system": "http://terminology.hl7.org/CodeSystem/measure-population",
                      "code": "measure-population",
                      "display": "Measure Population"
                    }
                  ]
                },
                "count": 1
              },
              {
                "code": {
                  "coding": [
                    {
                      "system": "http://terminology.hl7.org/CodeSystem/measure-population",
                      "code": "measure-population-observation",
                      "display": "Measure Population Observation"
                    }
                  ]
                },
                "count": 1
              }
            ]
          },
          {
            "population": [
              {
                "code": {
                  "coding": [
                    {
                      "system": "http://terminology.hl7.org/CodeSystem/measure-population",
                      "code": "initial-population",
                      "display": "Initial Population"
                    }
                  ]
                },
                "count": 1
              },
              {
                "code": {
                  "coding": [
                    {
                      "system": "http://terminology.hl7.org/CodeSystem/measure-population",
                      "code": "measure-population",
                      "display": "Measure Population"
                    }
                  ]
                },
                "count": 1
              },
              {
                "code": {
                  "coding": [
                    {
                      "system": "http://terminology.hl7.org/CodeSystem/measure-population",
                      "code": "measure-population-observation",
                      "display": "Measure Population Observation"
                    }
                  ]
                },
                "count": 0
              }
            ]
          },
          {
            "population": [
              {
                "code": {
                  "coding": [
                    {
                      "system": "http://terminology.hl7.org/CodeSystem/measure-population",
                      "code": "initial-population",
                      "display": "Initial Population"
                    }
                  ]
                },
                "count": 1
              },
              {
                "code": {
                  "coding": [
                    {
                      "system": "http://terminology.hl7.org/CodeSystem/measure-population",
                      "code": "measure-population",
                      "display": "Measure Population"
                    }
                  ]
                },
                "count": 1
              },
              {
                "code": {
                  "coding": [
                    {
                      "system": "http://terminology.hl7.org/CodeSystem/measure-population",
                      "code": "measure-population-observation",
                      "display": "Measure Population Observation"
                    }
                  ]
                },
                "count": 3
              }
            ]
          },
          {
            "population": [
              {
                "code": {
                  "coding": [
                    {
                      "system": "http://terminology.hl7.org/CodeSystem/measure-population",
                      "code": "initial-population",
                      "display": "Initial Population"
                    }
                  ]
                },
                "count": 1
              },
              {
                "code": {
                  "coding": [
                    {
                      "system": "http://terminology.hl7.org/CodeSystem/measure-population",
                      "code": "measure-population",
                      "display": "Measure Population"
                    }
                  ]
                },
                "count": 1
              },
              {
                "code": {
                  "coding": [
                    {
                      "system": "http://terminology.hl7.org/CodeSystem/measure-population",
                      "code": "measure-population-observation",
                      "display": "Measure Population Observation"
                    }
                  ]
                },
                "count": 75
              }
            ]
          }
        ],
        "evaluatedResource": [
          {
            "reference": "Patient/f449a1ea-36de-44cf-b9ae-7c9f4ec48f20"
          },
          {
            "reference": "Encounter/ff186981-a021-4749-922c-a98dd79584a7"
          },
          {
            "reference": "Condition/d57bca4e-1ead-41b8-a722-7456fbc664d2"
          },
          {
            "reference": "Observation/d70426fb-5d44-4ed6-a0a3-29798002f97d"
          },
          {
            "reference": "Observation/6738eb9e-1ff1-4a28-af89-eb64b325f42c"
          },
          {
            "reference": "Procedure/2a0b7677-0282-41ff-b0e9-4e1225e760ab"
          },
          {
            "reference": "Coverage/549377b2-28e4-4d13-8f09-70f29fc678bd"
          },
          {
            "reference": "Organization/441a7088-efaf-4b15-b164-79c9834ba772"
          }
        ]
      },
      "request": {
        "method": "PUT",
        "url": "MeasureReport/56ea3b7c-2e2d-46db-83d0-737aa47a0e93"
      }
    }
  ]
}