{
  "resourceType": "Bundle",
  "id": "6129134d02c62a011f2e7130",
  "type": "transaction",
  "entry": [
    {
      "fullUrl": "https://madie.cms.gov/Patient/d43239e0-d8bb-46a5-8243-b77d4b2804e2",
      "resource": {
        "resourceType": "Patient",
        "id": "d43239e0-d8bb-46a5-8243-b77d4b2804e2",
        "meta": {
          "profile": [
            "http://hl7.org/fhir/us/qicore/StructureDefinition/qicore-patient"
          ]
        },
        "text": {
          "status": "generated",
          "div": "<div xmlns=\"http://www.w3.org/1999/xhtml\"><div class=\"hapiHeaderText\">CMOdurED_ED&lt;1hrObs&lt;1hrBFEnc <b>DENEXPASS </b></div><table class=\"hapiPropertyTable\"><tbody><tr><td>Identifier</td><td>9f33229f87c10a35f78ce016aca297879ccda928800ebb32cb3005131188e0c3</td></tr><tr><td>Date of birth</td><td><span>21 August 1994</span></td></tr></tbody></table></div>"
        },
        "extension": [
          {
            "url": "http://hl7.org/fhir/us/core/StructureDefinition/us-core-race",
            "extension": [
              {
                "url": "ombCategory",
                "valueCoding": {
                  "system": "urn:oid:2.16.840.1.113883.6.238",
                  "code": "1002-5",
                  "display": "American Indian or Alaska Native",
                  "userSelected": true
                }
              },
              {
                "url": "text",
                "valueString": "American Indian or Alaska Native"
              }
            ]
          },
          {
            "url": "http://hl7.org/fhir/us/core/StructureDefinition/us-core-ethnicity",
            "extension": [
              {
                "url": "ombCategory",
                "valueCoding": {
                  "system": "urn:oid:2.16.840.1.113883.6.238",
                  "code": "2135-2",
                  "display": "Hispanic or Latino",
                  "userSelected": true
                }
              },
              {
                "url": "text",
                "valueString": "Hispanic or Latino"
              }
            ]
          }
        ],
        "identifier": [
          {
            "type": {
              "coding": [
                {
                  "system": "http://terminology.hl7.org/CodeSystem/v2-0203",
                  "code": "MR"
                }
              ]
            },
            "system": "https://bonnie-fhir.healthit.gov/",
            "value": "6129134d02c62a011f2e7130"
          }
        ],
        "active": true,
        "name": [
          {
            "use": "usual",
            "family": "DENEXPass",
            "given": [
              "CMOdurED_ED<1hrObs<1hrBFEnc"
            ]
          }
        ],
        "gender": "male",
        "birthDate": "1994-08-21"
      },
      "request": {
        "method": "PUT",
        "url": "Patient/d43239e0-d8bb-46a5-8243-b77d4b2804e2"
      }
    },
    {
      "fullUrl": "https://madie.cms.gov/Encounter/8af5d95c-0ae8-4b63-b262-656dfe0bca72",
      "resource": {
        "resourceType": "Encounter",
        "id": "8af5d95c-0ae8-4b63-b262-656dfe0bca72",
        "meta": {
          "profile": [
            "http://hl7.org/fhir/us/qicore/StructureDefinition/qicore-encounter"
          ]
        },
        "status": "finished",
        "class": {
          "system": "http://terminology.hl7.org/CodeSystem/v3-ActCode",
          "code": "EMER",
          "display": "emergency",
          "userSelected": true
        },
        "type": [
          {
            "coding": [
              {
                "system": "http://snomed.info/sct",
                "code": "4525004"
              }
            ]
          }
        ],
        "subject": {
          "reference": "Patient/d43239e0-d8bb-46a5-8243-b77d4b2804e2"
        },
        "period": {
          "start": "2025-10-10T09:30:00.000+00:00",
          "end": "2025-10-10T10:30:00.000+00:00"
        },
        "length": {
          "value": 0,
          "unit": "days"
        }
      },
      "request": {
        "method": "PUT",
        "url": "Encounter/8af5d95c-0ae8-4b63-b262-656dfe0bca72"
      }
    },
    {
      "fullUrl": "https://madie.cms.gov/Encounter/37146b0a-c95f-4ff4-95c3-f0aacc93f8a4",
      "resource": {
        "resourceType": "Encounter",
        "id": "37146b0a-c95f-4ff4-95c3-f0aacc93f8a4",
        "meta": {
          "profile": [
            "http://hl7.org/fhir/us/qicore/StructureDefinition/qicore-encounter"
          ]
        },
        "status": "finished",
        "class": {
          "system": "http://terminology.hl7.org/CodeSystem/v3-ActCode",
          "code": "OBSENC",
          "display": "observation encounter",
          "userSelected": true
        },
        "type": [
          {
            "coding": [
              {
                "system": "http://snomed.info/sct",
                "code": "448851000124103"
              }
            ]
          }
        ],
        "subject": {
          "reference": "Patient/d43239e0-d8bb-46a5-8243-b77d4b2804e2"
        },
        "period": {
          "start": "2025-10-10T10:31:00.000+00:00",
          "end": "2025-10-10T10:35:00.000+00:00"
        },
        "length": {
          "value": 0,
          "unit": "days"
        }
      },
      "request": {
        "method": "PUT",
        "url": "Encounter/37146b0a-c95f-4ff4-95c3-f0aacc93f8a4"
      }
    },
    {
      "fullUrl": "https://madie.cms.gov/Encounter/db0b3289-b084-4bb4-aacc-3bb9a5873a0a",
      "resource": {
        "resourceType": "Encounter",
        "id": "db0b3289-b084-4bb4-aacc-3bb9a5873a0a",
        "meta": {
          "profile": [
            "http://hl7.org/fhir/us/qicore/StructureDefinition/qicore-encounter"
          ]
        },
        "status": "finished",
        "class": {
          "system": "http://terminology.hl7.org/CodeSystem/v3-ActCode",
          "code": "IMP",
          "display": "inpatient encounter",
          "userSelected": true
        },
        "type": [
          {
            "coding": [
              {
                "system": "http://snomed.info/sct",
                "code": "32485007"
              }
            ]
          }
        ],
        "subject": {
          "reference": "Patient/d43239e0-d8bb-46a5-8243-b77d4b2804e2"
        },
        "period": {
          "start": "2025-10-10T10:36:00.000+00:00",
          "end": "2025-10-12T11:30:00.000+00:00"
        },
        "length": {
          "value": 2,
          "unit": "days"
        },
        "diagnosis": [
          {
            "condition": {
              "reference": "Condition/9e76c8ce-38f9-42c6-95cf-48db70ab78af"
            },
            "use": {
              "coding": [
                {
                  "system": "http://terminology.hl7.org/CodeSystem/diagnosis-role",
                  "code": "billing",
                  "display": "Billing"
                }
              ]
            },
            "rank": 1
          }
        ]
      },
      "request": {
        "method": "PUT",
        "url": "Encounter/db0b3289-b084-4bb4-aacc-3bb9a5873a0a"
      }
    },
    {
      "fullUrl": "https://madie.cms.gov/ServiceRequest/0dec9671-5d23-49e4-b847-bb67be8469ed",
      "resource": {
        "resourceType": "ServiceRequest",
        "id": "0dec9671-5d23-49e4-b847-bb67be8469ed",
        "meta": {
          "profile": [
            "http://hl7.org/fhir/us/qicore/StructureDefinition/qicore-servicerequest"
          ]
        },
        "status": "active",
        "intent": "order",
        "code": {
          "coding": [
            {
              "system": "http://snomed.info/sct",
              "code": "133918004"
            }
          ]
        },
        "subject": {
          "reference": "Patient/d43239e0-d8bb-46a5-8243-b77d4b2804e2"
        },
        "authoredOn": "2025-10-10T09:30:00.000+00:00"
      },
      "request": {
        "method": "PUT",
        "url": "ServiceRequest/0dec9671-5d23-49e4-b847-bb67be8469ed"
      }
    },
    {
      "fullUrl": "https://madie.cms.gov/Condition/9e76c8ce-38f9-42c6-95cf-48db70ab78af",
      "resource": {
        "resourceType": "Condition",
        "id": "9e76c8ce-38f9-42c6-95cf-48db70ab78af",
        "meta": {
          "profile": [
            "http://hl7.org/fhir/us/qicore/StructureDefinition/qicore-condition"
          ]
        },
        "clinicalStatus": {
          "coding": [
            {
              "system": "http://terminology.hl7.org/CodeSystem/condition-clinical",
              "code": "active"
            }
          ]
        },
        "verificationStatus": {
          "coding": [
            {
              "system": "http://terminology.hl7.org/CodeSystem/condition-ver-status",
              "code": "confirmed"
            }
          ]
        },
        "category": [
          {
            "coding": [
              {
                "system": "http://terminology.hl7.org/CodeSystem/condition-category",
                "code": "encounter-diagnosis",
                "display": "Encounter Diagnosis"
              }
            ]
          }
        ],
        "code": {
          "coding": [
            {
              "system": "http://snomed.info/sct",
              "version": "2020-09",
              "code": "111297002",
              "display": "Nonparalytic stroke (disorder)",
              "userSelected": true
            }
          ]
        },
        "subject": {
          "reference": "Patient/d43239e0-d8bb-46a5-8243-b77d4b2804e2"
        },
        "recordedDate": "2025-07-14T08:00:00.000+00:00"
      },
      "request": {
        "method": "PUT",
        "url": "Condition/9e76c8ce-38f9-42c6-95cf-48db70ab78af"
      }
    },
    {
      "fullUrl": "https://madie.cms.gov/Coverage/1fb0c7c5-75af-4dac-a6a0-1e9ce1e1be74",
      "resource": {
        "resourceType": "Coverage",
        "id": "1fb0c7c5-75af-4dac-a6a0-1e9ce1e1be74",
        "meta": {
          "profile": [
            "http://hl7.org/fhir/us/qicore/StructureDefinition/qicore-coverage"
          ]
        },
        "status": "active",
        "beneficiary": {
          "reference": "Patient/d43239e0-d8bb-46a5-8243-b77d4b2804e2"
        },
        "payor": [
          {
            "reference": "Organization/0b039907-ffe6-41ca-b989-cd88606b5ec4"
          }
        ]
      },
      "request": {
        "method": "PUT",
        "url": "Coverage/1fb0c7c5-75af-4dac-a6a0-1e9ce1e1be74"
      }
    },
    {
      "fullUrl": "https://madie.cms.gov/Organization/0b039907-ffe6-41ca-b989-cd88606b5ec4",
      "resource": {
        "resourceType": "Organization",
        "id": "0b039907-ffe6-41ca-b989-cd88606b5ec4",
        "meta": {
          "profile": [
            "http://hl7.org/fhir/us/qicore/StructureDefinition/qicore-organization"
          ]
        },
        "identifier": [
          {
            "use": "temp",
            "system": "urn:oid:2.16.840.1.113883.4.4",
            "value": "21-3259825"
          }
        ],
        "active": true,
        "type": [
          {
            "coding": [
              {
                "system": "http://terminology.hl7.org/CodeSystem/organization-type",
                "code": "pay",
                "display": "Payer"
              }
            ]
          }
        ],
        "name": "Blue Cross Blue Shield of Texas",
        "telecom": [
          {
            "system": "phone",
            "value": "(+1) 972-766-6900"
          }
        ],
        "address": [
          {
            "use": "billing",
            "type": "postal",
            "line": [
              "P.O. Box 660044"
            ],
            "city": "Dallas",
            "state": "TX",
            "postalCode": "75266-0044",
            "country": "USA"
          }
        ]
      },
      "request": {
        "method": "PUT",
        "url": "Organization/0b039907-ffe6-41ca-b989-cd88606b5ec4"
      }
    },
    {
      "fullUrl": "https://madie.cms.gov/MeasureReport/4b5af106-ee03-4405-934b-cdfb818f2be1",
      "resource": {
        "resourceType": "MeasureReport",
        "id": "4b5af106-ee03-4405-934b-cdfb818f2be1",
        "meta": {
          "profile": [
            "http://hl7.org/fhir/us/cqfmeasures/StructureDefinition/test-case-cqfm"
          ]
        },
        "contained": [
          {
            "resourceType": "Parameters",
            "id": "10f1f770-1dda-4e38-99ed-4fc37e2e8e29-parameters",
            "parameter": [
              {
                "name": "subject",
                "valueString": "d43239e0-d8bb-46a5-8243-b77d4b2804e2"
              }
            ]
          }
        ],
        "extension": [
          {
            "url": "http://hl7.org/fhir/us/cqfmeasures/StructureDefinition/cqfm-inputParameters",
            "valueReference": {
              "reference": "#10f1f770-1dda-4e38-99ed-4fc37e2e8e29-parameters"
            }
          },
          {
            "url": "http://hl7.org/fhir/us/cqfmeasures/StructureDefinition/cqfm-testCaseDescription",
            "valueMarkdown": "Patient receives CMO during ED. ED ends 1 minute before Observation. Obs ends 1 min before IP start. Testing day of operator with HospitalizationWithObservation function."
          }
        ],
        "modifierExtension": [
          {
            "url": "http://hl7.org/fhir/us/cqfmeasures/StructureDefinition/cqfm-isTestCase",
            "valueBoolean": true
          }
        ],
        "status": "complete",
        "type": "individual",
        "measure": "https://madie.cms.gov/Measure/DischargedonAntithromboticTherapyFHIR",
        "period": {
          "start": "2025-01-01",
          "end": "2025-12-31"
        },
        "group": [
          {
            "population": [
              {
                "code": {
                  "coding": [
                    {
                      "system": "http://terminology.hl7.org/CodeSystem/measure-population",
                      "code": "initial-population",
                      "display": "Initial Population"
                    }
                  ]
                },
                "count": 1
              },
              {
                "code": {
                  "coding": [
                    {
                      "system": "http://terminology.hl7.org/CodeSystem/measure-population",
                      "code": "denominator",
                      "display": "Denominator"
                    }
                  ]
                },
                "count": 1
              },
              {
                "code": {
                  "coding": [
                    {
                      "system": "http://terminology.hl7.org/CodeSystem/measure-population",
                      "code": "denominator-exclusion",
                      "display": "Denominator Exclusion"
                    }
                  ]
                },
                "count": 1
              },
              {
                "code": {
                  "coding": [
                    {
                      "system": "http://terminology.hl7.org/CodeSystem/measure-population",
                      "code": "numerator",
                      "display": "Numerator"
                    }
                  ]
                },
                "count": 0
              },
              {
                "code": {
                  "coding": [
                    {
                      "system": "http://terminology.hl7.org/CodeSystem/measure-population",
                      "code": "denominator-exception",
                      "display": "Denominator Exception"
                    }
                  ]
                },
                "count": 0
              }
            ]
          }
        ],
        "evaluatedResource": [
          {
            "reference": "Patient/d43239e0-d8bb-46a5-8243-b77d4b2804e2"
          },
          {
            "reference": "Encounter/8af5d95c-0ae8-4b63-b262-656dfe0bca72"
          },
          {
            "reference": "Encounter/37146b0a-c95f-4ff4-95c3-f0aacc93f8a4"
          },
          {
            "reference": "Encounter/db0b3289-b084-4bb4-aacc-3bb9a5873a0a"
          },
          {
            "reference": "ServiceRequest/0dec9671-5d23-49e4-b847-bb67be8469ed"
          },
          {
            "reference": "Condition/9e76c8ce-38f9-42c6-95cf-48db70ab78af"
          },
          {
            "reference": "Coverage/1fb0c7c5-75af-4dac-a6a0-1e9ce1e1be74"
          },
          {
            "reference": "Organization/0b039907-ffe6-41ca-b989-cd88606b5ec4"
          }
        ]
      },
      "request": {
        "method": "PUT",
        "url": "MeasureReport/4b5af106-ee03-4405-934b-cdfb818f2be1"
      }
    }
  ]
}