{
  "resourceType": "Bundle",
  "id": "63ec096accb3770120fea003",
  "type": "transaction",
  "entry": [
    {
      "fullUrl": "https://madie.cms.gov/Patient/b0eeae6e-7ae5-4c38-bbf8-5a1b619b2876",
      "resource": {
        "resourceType": "Patient",
        "id": "b0eeae6e-7ae5-4c38-bbf8-5a1b619b2876",
        "meta": {
          "profile": [
            "http://hl7.org/fhir/us/qicore/StructureDefinition/qicore-patient"
          ]
        },
        "text": {
          "status": "generated",
          "div": "<div xmlns=\"http://www.w3.org/1999/xhtml\"><div class=\"hapiHeaderText\">GT24beforeAndGT2after <b>SBPFAIL </b></div><table class=\"hapiPropertyTable\"><tbody><tr><td>Identifier</td><td>06325773a6790e23c9c87a5044d667ced8c93e3997128578dd7c39ff089cc6f3</td></tr><tr><td>Date of birth</td><td><span>15 June 1956</span></td></tr></tbody></table></div>"
        },
        "extension": [
          {
            "url": "http://hl7.org/fhir/us/core/StructureDefinition/us-core-race",
            "extension": [
              {
                "url": "ombCategory",
                "valueCoding": {
                  "system": "urn:oid:2.16.840.1.113883.6.238",
                  "code": "1002-5",
                  "display": "American Indian or Alaska Native",
                  "userSelected": true
                }
              },
              {
                "url": "text",
                "valueString": "American Indian or Alaska Native"
              }
            ]
          },
          {
            "url": "http://hl7.org/fhir/us/core/StructureDefinition/us-core-ethnicity",
            "extension": [
              {
                "url": "ombCategory",
                "valueCoding": {
                  "system": "urn:oid:2.16.840.1.113883.6.238",
                  "code": "2186-5",
                  "display": "Not Hispanic or Latino",
                  "userSelected": true
                }
              },
              {
                "url": "text",
                "valueString": "Not Hispanic or Latino"
              }
            ]
          }
        ],
        "identifier": [
          {
            "type": {
              "coding": [
                {
                  "system": "http://terminology.hl7.org/CodeSystem/v2-0203",
                  "code": "MR"
                }
              ]
            },
            "system": "https://bonnie-fhir.healthit.gov/",
            "value": "63ec096accb3770120fea003"
          }
        ],
        "active": true,
        "name": [
          {
            "use": "usual",
            "family": "SystolicBPPass",
            "given": [
              "FirstReadingNotInMP"
            ]
          }
        ],
        "gender": "male",
        "birthDate": "1959-07-01"
      },
      "request": {
        "method": "PUT",
        "url": "Patient/b0eeae6e-7ae5-4c38-bbf8-5a1b619b2876"
      }
    },
    {
      "fullUrl": "https://madie.cms.gov/Encounter/0d0447a7-c3a2-47fa-afad-29e384b231fa",
      "resource": {
        "resourceType": "Encounter",
        "id": "0d0447a7-c3a2-47fa-afad-29e384b231fa",
        "meta": {
          "profile": [
            "http://hl7.org/fhir/us/qicore/StructureDefinition/qicore-encounter"
          ]
        },
        "status": "finished",
        "class": {
          "system": "http://terminology.hl7.org/CodeSystem/v3-ActCode",
          "code": "ACUTE",
          "display": "Acute",
          "userSelected": true
        },
        "type": [
          {
            "coding": [
              {
                "system": "http://snomed.info/sct",
                "code": "183452005"
              }
            ]
          }
        ],
        "subject": {
          "reference": "Patient/b0eeae6e-7ae5-4c38-bbf8-5a1b619b2876"
        },
        "period": {
          "start": "2025-07-01T08:00:00.000+00:00",
          "end": "2025-07-02T16:15:00.000+00:00"
        },
        "length": {
          "value": 1,
          "unit": "days"
        }
      },
      "request": {
        "method": "PUT",
        "url": "Encounter/0d0447a7-c3a2-47fa-afad-29e384b231fa"
      }
    },
    {
      "fullUrl": "https://madie.cms.gov/Coverage/85bc86c5-ea69-454b-b688-849d9a95d3ce",
      "resource": {
        "resourceType": "Coverage",
        "id": "85bc86c5-ea69-454b-b688-849d9a95d3ce",
        "meta": {
          "profile": [
            "http://hl7.org/fhir/us/qicore/StructureDefinition/qicore-coverage"
          ]
        },
        "status": "active",
        "type": {
          "coding": [
            {
              "system": "https://nahdo.org/sopt",
              "version": "1.0.1",
              "code": "1",
              "display": "Medicare payer",
              "userSelected": true
            }
          ]
        },
        "beneficiary": {
          "reference": "Patient/b0eeae6e-7ae5-4c38-bbf8-5a1b619b2876"
        },
        "period": {
          "start": "2025-01-01T08:00:00.000+00:00"
        },
        "payor": [
          {
            "reference": "Organization/123456"
          }
        ]
      },
      "request": {
        "method": "PUT",
        "url": "Coverage/85bc86c5-ea69-454b-b688-849d9a95d3ce"
      }
    },
    {
      "fullUrl": "https://madie.cms.gov/Observation/02c0257f-2edd-415e-96b7-d19bf64005aa",
      "resource": {
        "resourceType": "Observation",
        "id": "02c0257f-2edd-415e-96b7-d19bf64005aa",
        "meta": {
          "profile": [
            "http://hl7.org/fhir/StructureDefinition/bp"
          ]
        },
        "status": "final",
        "category": [
          {
            "coding": [
              {
                "system": "http://terminology.hl7.org/CodeSystem/observation-category",
                "code": "vital-signs",
                "display": "Vital Signs"
              }
            ],
            "text": "Vital Signs"
          }
        ],
        "code": {
          "coding": [
            {
              "system": "http://loinc.org",
              "code": "85354-9",
              "display": "Blood pressure panel with all children optional"
            }
          ]
        },
        "subject": {
          "reference": "Patient/b0eeae6e-7ae5-4c38-bbf8-5a1b619b2876"
        },
        "encounter": {
          "reference": "Encounter/0d0447a7-c3a2-47fa-afad-29e384b231fa"
        },
        "effectiveDateTime": "2025-06-30T00:00:00.000Z",
        "component": [
          {
            "code": {
              "coding": [
                {
                  "system": "http://loinc.org",
                  "code": "8480-6",
                  "display": "Systolic blood pressure"
                }
              ]
            },
            "valueQuantity": {
              "value": 139,
              "unit": "mmHg",
              "system": "http://unitsofmeasure.org",
              "code": "mm[Hg]"
            }
          },
          {
            "code": {
              "coding": [
                {
                  "system": "http://loinc.org",
                  "code": "8462-4",
                  "display": "Diastolic blood pressure"
                }
              ]
            },
            "valueQuantity": {
              "value": 89,
              "unit": "mmHg",
              "system": "http://unitsofmeasure.org",
              "code": "mm[Hg]"
            }
          }
        ]
      },
      "request": {
        "method": "PUT",
        "url": "Observation/02c0257f-2edd-415e-96b7-d19bf64005aa"
      }
    },
    {
      "fullUrl": "https://madie.cms.gov/Observation/8c1a0a93-d470-462d-a4ab-8f9c0fe05acd",
      "resource": {
        "resourceType": "Observation",
        "id": "8c1a0a93-d470-462d-a4ab-8f9c0fe05acd",
        "meta": {
          "profile": [
            "http://hl7.org/fhir/StructureDefinition/bp"
          ]
        },
        "status": "final",
        "category": [
          {
            "coding": [
              {
                "system": "http://terminology.hl7.org/CodeSystem/observation-category",
                "code": "vital-signs",
                "display": "Vital Signs"
              }
            ],
            "text": "Vital Signs"
          }
        ],
        "code": {
          "coding": [
            {
              "system": "http://loinc.org",
              "code": "85354-9",
              "display": "Blood pressure panel with all children optional"
            }
          ]
        },
        "subject": {
          "reference": "Patient/b0eeae6e-7ae5-4c38-bbf8-5a1b619b2876"
        },
        "encounter": {
          "reference": "Encounter/0d0447a7-c3a2-47fa-afad-29e384b231fa"
        },
        "effectiveDateTime": "2025-07-01T08:00:00.000Z",
        "component": [
          {
            "code": {
              "coding": [
                {
                  "system": "http://loinc.org",
                  "code": "8480-6",
                  "display": "Systolic blood pressure"
                }
              ]
            },
            "valueQuantity": {
              "value": 139,
              "unit": "mmHg",
              "system": "http://unitsofmeasure.org",
              "code": "mm[Hg]"
            }
          },
          {
            "code": {
              "coding": [
                {
                  "system": "http://loinc.org",
                  "code": "8462-4",
                  "display": "Diastolic blood pressure"
                }
              ]
            },
            "valueQuantity": {
              "value": 89,
              "unit": "mmHg",
              "system": "http://unitsofmeasure.org",
              "code": "mm[Hg]"
            }
          }
        ]
      },
      "request": {
        "method": "PUT",
        "url": "Observation/8c1a0a93-d470-462d-a4ab-8f9c0fe05acd"
      }
    },
    {
      "fullUrl": "https://madie.cms.gov/MeasureReport/993b61b1-918c-4ae2-a6f8-067f172d49a2",
      "resource": {
        "resourceType": "MeasureReport",
        "id": "993b61b1-918c-4ae2-a6f8-067f172d49a2",
        "meta": {
          "profile": [
            "http://hl7.org/fhir/us/cqfmeasures/StructureDefinition/test-case-cqfm"
          ]
        },
        "contained": [
          {
            "resourceType": "Parameters",
            "id": "ceb0709a-e3b8-4b87-9e70-bfda12b994d7-parameters",
            "parameter": [
              {
                "name": "subject",
                "valueString": "b0eeae6e-7ae5-4c38-bbf8-5a1b619b2876"
              }
            ]
          }
        ],
        "extension": [
          {
            "url": "http://hl7.org/fhir/us/cqfmeasures/StructureDefinition/cqfm-inputParameters",
            "valueReference": {
              "reference": "#ceb0709a-e3b8-4b87-9e70-bfda12b994d7-parameters"
            }
          },
          {
            "url": "http://hl7.org/fhir/us/cqfmeasures/StructureDefinition/cqfm-testCaseDescription",
            "valueMarkdown": "Enc first day of MP;  Medicare started 1/1 , 19 hrs prior to inpatient admit (office visit), BP evaluated but is not included since not in MP. 2nd reading 1 min after admit which is the reading counted. \n"
          }
        ],
        "modifierExtension": [
          {
            "url": "http://hl7.org/fhir/us/cqfmeasures/StructureDefinition/cqfm-isTestCase",
            "valueBoolean": true
          }
        ],
        "status": "complete",
        "type": "individual",
        "measure": "https://madie.cms.gov/Measure/HybridHospitalWideMortalityFHIR",
        "period": {
          "start": "2025-07-01",
          "end": "2026-06-30"
        },
        "group": [
          {
            "population": [
              {
                "code": {
                  "coding": [
                    {
                      "system": "http://terminology.hl7.org/CodeSystem/measure-population",
                      "code": "initial-population",
                      "display": "Initial Population"
                    }
                  ]
                },
                "count": 1
              }
            ]
          }
        ],
        "evaluatedResource": [
          {
            "reference": "Patient/b0eeae6e-7ae5-4c38-bbf8-5a1b619b2876"
          },
          {
            "reference": "Encounter/0d0447a7-c3a2-47fa-afad-29e384b231fa"
          },
          {
            "reference": "Coverage/85bc86c5-ea69-454b-b688-849d9a95d3ce"
          },
          {
            "reference": "Observation/02c0257f-2edd-415e-96b7-d19bf64005aa"
          },
          {
            "reference": "Observation/8c1a0a93-d470-462d-a4ab-8f9c0fe05acd"
          }
        ]
      },
      "request": {
        "method": "PUT",
        "url": "MeasureReport/993b61b1-918c-4ae2-a6f8-067f172d49a2"
      }
    }
  ]
}