{
  "resourceType": "Bundle",
  "id": "63ec0968ccb3770120fe9dc6",
  "type": "transaction",
  "entry": [
    {
      "fullUrl": "https://madie.cms.gov/Patient/9b39b797-46ff-41d2-b5a3-2cace5e0ebeb",
      "resource": {
        "resourceType": "Patient",
        "id": "9b39b797-46ff-41d2-b5a3-2cace5e0ebeb",
        "meta": {
          "profile": [
            "http://hl7.org/fhir/us/qicore/StructureDefinition/qicore-patient"
          ]
        },
        "text": {
          "status": "generated",
          "div": "<div xmlns=\"http://www.w3.org/1999/xhtml\"><div class=\"hapiHeaderText\">GT2after_relevantPeriod_startonly <b>TEMPFAIL </b></div><table class=\"hapiPropertyTable\"><tbody><tr><td>Identifier</td><td>cc92ca2d683777c37369f3543d9693f391ac5069002d71debd1939cd48bb2d8a</td></tr><tr><td>Date of birth</td><td><span>15 June 1956</span></td></tr></tbody></table></div>"
        },
        "extension": [
          {
            "url": "http://hl7.org/fhir/us/core/StructureDefinition/us-core-race",
            "extension": [
              {
                "url": "ombCategory",
                "valueCoding": {
                  "system": "urn:oid:2.16.840.1.113883.6.238",
                  "code": "1002-5",
                  "display": "American Indian or Alaska Native",
                  "userSelected": true
                }
              },
              {
                "url": "text",
                "valueString": "American Indian or Alaska Native"
              }
            ]
          },
          {
            "url": "http://hl7.org/fhir/us/core/StructureDefinition/us-core-ethnicity",
            "extension": [
              {
                "url": "ombCategory",
                "valueCoding": {
                  "system": "urn:oid:2.16.840.1.113883.6.238",
                  "code": "2186-5",
                  "display": "Not Hispanic or Latino",
                  "userSelected": true
                }
              },
              {
                "url": "text",
                "valueString": "Not Hispanic or Latino"
              }
            ]
          }
        ],
        "identifier": [
          {
            "type": {
              "coding": [
                {
                  "system": "http://terminology.hl7.org/CodeSystem/v2-0203",
                  "code": "MR"
                }
              ]
            },
            "system": "https://bonnie-fhir.healthit.gov/",
            "value": "63ec0968ccb3770120fe9dc6"
          }
        ],
        "active": true,
        "name": [
          {
            "use": "usual",
            "family": "TemperaturePass",
            "given": [
              "2HrsAfterStartOfEncounter"
            ]
          }
        ],
        "gender": "male",
        "birthDate": "1956-06-15"
      },
      "request": {
        "method": "PUT",
        "url": "Patient/9b39b797-46ff-41d2-b5a3-2cace5e0ebeb"
      }
    },
    {
      "fullUrl": "https://madie.cms.gov/Encounter/74f8cccf-8a68-46d6-b4cf-265448c75a2b",
      "resource": {
        "resourceType": "Encounter",
        "id": "74f8cccf-8a68-46d6-b4cf-265448c75a2b",
        "meta": {
          "profile": [
            "http://hl7.org/fhir/us/qicore/StructureDefinition/qicore-encounter"
          ]
        },
        "status": "finished",
        "class": {
          "system": "http://terminology.hl7.org/CodeSystem/v3-ActCode",
          "code": "NONAC",
          "display": "Nonacute",
          "userSelected": true
        },
        "type": [
          {
            "coding": [
              {
                "system": "http://snomed.info/sct",
                "code": "183452005",
                "display": "Emergency hospital admission (procedure)"
              }
            ]
          }
        ],
        "subject": {
          "reference": "Patient/9b39b797-46ff-41d2-b5a3-2cace5e0ebeb"
        },
        "period": {
          "start": "2025-07-01T08:00:00.000+00:00",
          "end": "2025-07-02T08:15:00.000+00:00"
        }
      },
      "request": {
        "method": "PUT",
        "url": "Encounter/74f8cccf-8a68-46d6-b4cf-265448c75a2b"
      }
    },
    {
      "fullUrl": "https://madie.cms.gov/Coverage/74b9d594-0dd5-49f4-9860-c8387f038568",
      "resource": {
        "resourceType": "Coverage",
        "id": "74b9d594-0dd5-49f4-9860-c8387f038568",
        "meta": {
          "profile": [
            "http://hl7.org/fhir/us/qicore/StructureDefinition/qicore-coverage"
          ]
        },
        "status": "active",
        "type": {
          "coding": [
            {
              "system": "https://nahdo.org/sopt",
              "version": "1.0.1",
              "code": "1",
              "display": "Medicare payer",
              "userSelected": true
            }
          ]
        },
        "beneficiary": {
          "reference": "Patient/9b39b797-46ff-41d2-b5a3-2cace5e0ebeb"
        },
        "period": {
          "start": "2025-01-28T08:00:00.000+00:00",
          "end": "2025-12-31T08:15:00.000+00:00"
        },
        "payor": [
          {
            "reference": "Organization/2f660641-2715-40fe-aa83-a93620d753f8"
          }
        ]
      },
      "request": {
        "method": "PUT",
        "url": "Coverage/74b9d594-0dd5-49f4-9860-c8387f038568"
      }
    },
    {
      "fullUrl": "https://madie.cms.gov/Observation/92e0d6da-38ba-435f-a148-8396fb8d4dcc",
      "resource": {
        "resourceType": "Observation",
        "id": "92e0d6da-38ba-435f-a148-8396fb8d4dcc",
        "meta": {
          "profile": [
            "http://hl7.org/fhir/StructureDefinition/bodytemp"
          ]
        },
        "status": "corrected",
        "category": [
          {
            "coding": [
              {
                "system": "http://terminology.hl7.org/CodeSystem/observation-category",
                "code": "vital-signs",
                "display": "Vital Signs",
                "userSelected": true
              }
            ]
          }
        ],
        "code": {
          "coding": [
            {
              "system": "http://loinc.org",
              "code": "8310-5",
              "display": "Body temperature"
            }
          ]
        },
        "subject": {
          "reference": "Patient/9b39b797-46ff-41d2-b5a3-2cace5e0ebeb"
        },
        "effectiveDateTime": "2025-07-01T10:00:00.000+00:00",
        "valueQuantity": {
          "value": 98.6,
          "unit": "[degF]",
          "system": "http://unitsofmeasure.org",
          "code": "[degF]"
        }
      },
      "request": {
        "method": "PUT",
        "url": "Observation/92e0d6da-38ba-435f-a148-8396fb8d4dcc"
      }
    },
    {
      "fullUrl": "https://madie.cms.gov/Organization/2f660641-2715-40fe-aa83-a93620d753f8",
      "resource": {
        "resourceType": "Organization",
        "id": "2f660641-2715-40fe-aa83-a93620d753f8",
        "meta": {
          "profile": [
            "http://hl7.org/fhir/us/qicore/StructureDefinition/qicore-organization"
          ]
        },
        "identifier": [
          {
            "use": "temp",
            "system": "urn:oid:2.16.840.1.113883.4.4",
            "value": "21-3259825"
          }
        ],
        "active": true,
        "type": [
          {
            "coding": [
              {
                "system": "http://terminology.hl7.org/CodeSystem/organization-type",
                "code": "pay",
                "display": "Payer"
              }
            ]
          }
        ],
        "name": "Blue Cross Blue Shield of Texas",
        "telecom": [
          {
            "system": "phone",
            "value": "(+1) 972-766-6900"
          }
        ],
        "address": [
          {
            "use": "billing",
            "type": "postal",
            "line": [
              "P.O. Box 660044"
            ],
            "city": "Dallas",
            "state": "TX",
            "postalCode": "75266-0044",
            "country": "USA"
          }
        ]
      },
      "request": {
        "method": "PUT",
        "url": "Organization/2f660641-2715-40fe-aa83-a93620d753f8"
      }
    },
    {
      "fullUrl": "https://madie.cms.gov/Practitioner/7c43f2d4-674d-4554-9b50-433867022727",
      "resource": {
        "resourceType": "Practitioner",
        "id": "7c43f2d4-674d-4554-9b50-433867022727",
        "meta": {
          "profile": [
            "http://hl7.org/fhir/us/qicore/StructureDefinition/qicore-practitioner"
          ]
        },
        "identifier": [
          {
            "system": "http://hl7.org/fhir/sid/us-npi",
            "value": "123456"
          }
        ],
        "name": [
          {
            "family": "Evil",
            "prefix": [
              "Dr"
            ]
          }
        ]
      },
      "request": {
        "method": "PUT",
        "url": "Practitioner/7c43f2d4-674d-4554-9b50-433867022727"
      }
    },
    {
      "fullUrl": "https://madie.cms.gov/MeasureReport/285a989c-aee9-495f-b9f3-9d7fd169bc77",
      "resource": {
        "resourceType": "MeasureReport",
        "id": "285a989c-aee9-495f-b9f3-9d7fd169bc77",
        "meta": {
          "profile": [
            "http://hl7.org/fhir/us/cqfmeasures/StructureDefinition/test-case-cqfm"
          ]
        },
        "contained": [
          {
            "resourceType": "Parameters",
            "id": "92a1eef7-5bcb-4c07-9180-015fa77d4094-parameters",
            "parameter": [
              {
                "name": "subject",
                "valueString": "9b39b797-46ff-41d2-b5a3-2cace5e0ebeb"
              }
            ]
          }
        ],
        "extension": [
          {
            "url": "http://hl7.org/fhir/us/cqfmeasures/StructureDefinition/cqfm-inputParameters",
            "valueReference": {
              "reference": "#92a1eef7-5bcb-4c07-9180-015fa77d4094-parameters"
            }
          },
          {
            "url": "http://hl7.org/fhir/us/cqfmeasures/StructureDefinition/cqfm-testCaseDescription",
            "valueMarkdown": "Enc first day of MP (7/1), has Medicare, Patient has temperature taken 2hrs after start of encounter"
          }
        ],
        "modifierExtension": [
          {
            "url": "http://hl7.org/fhir/us/cqfmeasures/StructureDefinition/cqfm-isTestCase",
            "valueBoolean": true
          }
        ],
        "status": "complete",
        "type": "individual",
        "measure": "https://madie.cms.gov/Measure/HybridHospitalWideMortalityFHIR",
        "period": {
          "start": "2025-07-01",
          "end": "2026-06-30"
        },
        "group": [
          {
            "population": [
              {
                "code": {
                  "coding": [
                    {
                      "system": "http://terminology.hl7.org/CodeSystem/measure-population",
                      "code": "initial-population",
                      "display": "Initial Population"
                    }
                  ]
                },
                "count": 1
              }
            ]
          }
        ],
        "evaluatedResource": [
          {
            "reference": "Patient/9b39b797-46ff-41d2-b5a3-2cace5e0ebeb"
          },
          {
            "reference": "Encounter/74f8cccf-8a68-46d6-b4cf-265448c75a2b"
          },
          {
            "reference": "Coverage/74b9d594-0dd5-49f4-9860-c8387f038568"
          },
          {
            "reference": "Observation/92e0d6da-38ba-435f-a148-8396fb8d4dcc"
          },
          {
            "reference": "Organization/2f660641-2715-40fe-aa83-a93620d753f8"
          },
          {
            "reference": "Practitioner/7c43f2d4-674d-4554-9b50-433867022727"
          }
        ]
      },
      "request": {
        "method": "PUT",
        "url": "MeasureReport/285a989c-aee9-495f-b9f3-9d7fd169bc77"
      }
    }
  ]
}