{
  "resourceType": "Bundle",
  "id": "633b3f9f0968f80122503cdb",
  "type": "transaction",
  "entry": [
    {
      "fullUrl": "https://madie.cms.gov/Patient/0b412c73-184d-4224-aeac-91a87e40b4e6",
      "resource": {
        "resourceType": "Patient",
        "id": "0b412c73-184d-4224-aeac-91a87e40b4e6",
        "meta": {
          "profile": [
            "http://hl7.org/fhir/us/qicore/StructureDefinition/qicore-patient"
          ]
        },
        "text": {
          "status": "generated",
          "div": "<div xmlns=\"http://www.w3.org/1999/xhtml\"><div class=\"hapiHeaderText\">AssPrfEGALastIsNullFirstIs20 <b>DENOMPASS </b></div><table class=\"hapiPropertyTable\"><tbody><tr><td>Date of birth</td><td><span>01 February 2004</span></td></tr></tbody></table></div>"
        },
        "extension": [
          {
            "url": "http://hl7.org/fhir/us/core/StructureDefinition/us-core-race",
            "extension": [
              {
                "url": "ombCategory",
                "valueCoding": {
                  "system": "urn:oid:2.16.840.1.113883.6.238",
                  "code": "1002-5",
                  "display": "American Indian or Alaska Native",
                  "userSelected": true
                }
              },
              {
                "url": "text",
                "valueString": "American Indian or Alaska Native"
              }
            ]
          },
          {
            "url": "http://hl7.org/fhir/us/core/StructureDefinition/us-core-ethnicity",
            "extension": [
              {
                "url": "ombCategory",
                "valueCoding": {
                  "system": "urn:oid:2.16.840.1.113883.6.238",
                  "code": "2135-2",
                  "display": "Hispanic or Latino",
                  "userSelected": true
                }
              },
              {
                "url": "text",
                "valueString": "Hispanic or Latino"
              }
            ]
          }
        ],
        "identifier": [
          {
            "type": {
              "coding": [
                {
                  "system": "http://terminology.hl7.org/CodeSystem/v2-0203",
                  "code": "MR"
                }
              ]
            },
            "system": "https://bonnie-fhir.healthit.gov/",
            "value": "633b3f9f0968f80122503cdb"
          }
        ],
        "active": true,
        "name": [
          {
            "use": "usual",
            "family": "DENOMPass",
            "given": [
              "AssPrfEGALastIsNullFirstIs20 "
            ]
          }
        ],
        "gender": "female",
        "birthDate": "2004-02-01"
      },
      "request": {
        "method": "PUT",
        "url": "Patient/0b412c73-184d-4224-aeac-91a87e40b4e6"
      }
    },
    {
      "fullUrl": "https://madie.cms.gov/Observation/77f4b7a4-d571-4df5-b188-e5cece82ed26",
      "resource": {
        "resourceType": "Observation",
        "id": "77f4b7a4-d571-4df5-b188-e5cece82ed26",
        "meta": {
          "profile": [
            "http://hl7.org/fhir/us/qicore/StructureDefinition/qicore-observation"
          ]
        },
        "status": "final",
        "category": [
          {
            "coding": [
              {
                "system": "http://terminology.hl7.org/CodeSystem/observation-category",
                "code": "exam",
                "display": "exam",
                "userSelected": true
              }
            ]
          }
        ],
        "code": {
          "coding": [
            {
              "system": "http://loinc.org",
              "code": "93857-1"
            }
          ]
        },
        "subject": {
          "reference": "Patient/0b412c73-184d-4224-aeac-91a87e40b4e6"
        },
        "effectiveDateTime": "2024-02-01T08:00:00.000+00:00",
        "valueDateTime": "2024-02-01T08:00:00+00:00"
      },
      "request": {
        "method": "PUT",
        "url": "Observation/77f4b7a4-d571-4df5-b188-e5cece82ed26"
      }
    },
    {
      "fullUrl": "https://madie.cms.gov/Observation/9dda3930-3f44-4979-bccf-64fdd9816262",
      "resource": {
        "resourceType": "Observation",
        "id": "9dda3930-3f44-4979-bccf-64fdd9816262",
        "meta": {
          "profile": [
            "http://hl7.org/fhir/us/qicore/StructureDefinition/qicore-observation"
          ]
        },
        "status": "final",
        "category": [
          {
            "coding": [
              {
                "system": "http://terminology.hl7.org/CodeSystem/observation-category",
                "code": "exam",
                "display": "exam",
                "userSelected": true
              }
            ]
          }
        ],
        "code": {
          "coding": [
            {
              "system": "http://loinc.org",
              "code": "11884-4"
            }
          ]
        },
        "subject": {
          "reference": "Patient/0b412c73-184d-4224-aeac-91a87e40b4e6"
        },
        "effectiveDateTime": "2024-02-01T08:00:00.000+00:00",
        "valueQuantity": {
          "value": 20,
          "system": "http://unitsofmeasure.org",
          "code": "wk"
        }
      },
      "request": {
        "method": "PUT",
        "url": "Observation/9dda3930-3f44-4979-bccf-64fdd9816262"
      }
    },
    {
      "fullUrl": "https://madie.cms.gov/Observation/5be5d909-73c9-4a82-a0c3-9fc1fca69d8d",
      "resource": {
        "resourceType": "Observation",
        "id": "5be5d909-73c9-4a82-a0c3-9fc1fca69d8d",
        "meta": {
          "profile": [
            "http://hl7.org/fhir/us/qicore/StructureDefinition/qicore-observation"
          ]
        },
        "status": "final",
        "category": [
          {
            "coding": [
              {
                "system": "http://terminology.hl7.org/CodeSystem/observation-category",
                "code": "exam",
                "display": "exam",
                "userSelected": true
              }
            ]
          }
        ],
        "code": {
          "coding": [
            {
              "system": "http://loinc.org",
              "code": "11884-4"
            }
          ]
        },
        "subject": {
          "reference": "Patient/0b412c73-184d-4224-aeac-91a87e40b4e6"
        },
        "effectiveDateTime": "2024-02-01T08:01:00.000+00:00"
      },
      "request": {
        "method": "PUT",
        "url": "Observation/5be5d909-73c9-4a82-a0c3-9fc1fca69d8d"
      }
    },
    {
      "fullUrl": "https://madie.cms.gov/Encounter/72000845-a377-4f42-9d12-f9288c138c25",
      "resource": {
        "resourceType": "Encounter",
        "id": "72000845-a377-4f42-9d12-f9288c138c25",
        "meta": {
          "profile": [
            "http://hl7.org/fhir/us/qicore/StructureDefinition/qicore-encounter"
          ]
        },
        "status": "finished",
        "class": {
          "system": "http://terminology.hl7.org/CodeSystem/v3-ActCode",
          "code": "IMP",
          "display": "inpatient encounter"
        },
        "type": [
          {
            "coding": [
              {
                "system": "http://snomed.info/sct",
                "code": "183452005"
              }
            ]
          }
        ],
        "subject": {
          "reference": "Patient/0b412c73-184d-4224-aeac-91a87e40b4e6"
        },
        "period": {
          "start": "2024-02-01T08:00:00.000Z",
          "end": "2024-02-05T08:15:00.000Z"
        }
      },
      "request": {
        "method": "PUT",
        "url": "Encounter/72000845-a377-4f42-9d12-f9288c138c25"
      }
    },
    {
      "fullUrl": "https://madie.cms.gov/Coverage/edf01a2b-26c9-4b03-8b92-5fa063adf57b",
      "resource": {
        "resourceType": "Coverage",
        "id": "edf01a2b-26c9-4b03-8b92-5fa063adf57b",
        "status": "active",
        "beneficiary": {
          "reference": "Patient/0b412c73-184d-4224-aeac-91a87e40b4e6"
        },
        "period": {
          "start": "2004-02-01T08:00:00.000Z"
        },
        "payor": [
          {
            "reference": "Organization/c9cdd312-8372-4ee6-8080-3afe01f1df1f"
          }
        ]
      },
      "request": {
        "method": "PUT",
        "url": "Coverage/edf01a2b-26c9-4b03-8b92-5fa063adf57b"
      }
    },
    {
      "fullUrl": "https://madie.cms.gov/Procedure/71259ba2-5ced-4a40-9341-5e11f53bb4a6",
      "resource": {
        "resourceType": "Procedure",
        "id": "71259ba2-5ced-4a40-9341-5e11f53bb4a6",
        "meta": {
          "profile": [
            "http://hl7.org/fhir/us/qicore/StructureDefinition/qicore-procedure"
          ]
        },
        "extension": [
          {
            "url": "http://hl7.org/fhir/us/qicore/StructureDefinition/qicore-recorded",
            "valueDateTime": "2013-04-05T09:35:00-04:00"
          }
        ],
        "status": "completed",
        "code": {
          "coding": [
            {
              "system": "http://snomed.info/sct",
              "code": "10745001"
            }
          ]
        },
        "subject": {
          "reference": "Patient/0b412c73-184d-4224-aeac-91a87e40b4e6"
        },
        "performedPeriod": {
          "start": "2024-02-01T08:00:00.000Z",
          "end": "2024-02-05T08:15:00.000Z"
        }
      },
      "request": {
        "method": "PUT",
        "url": "Procedure/71259ba2-5ced-4a40-9341-5e11f53bb4a6"
      }
    },
    {
      "fullUrl": "https://madie.cms.gov/Organization/c9cdd312-8372-4ee6-8080-3afe01f1df1f",
      "resource": {
        "resourceType": "Organization",
        "id": "c9cdd312-8372-4ee6-8080-3afe01f1df1f",
        "meta": {
          "profile": [
            "http://hl7.org/fhir/us/qicore/StructureDefinition/qicore-organization"
          ]
        },
        "identifier": [
          {
            "use": "temp",
            "system": "urn:oid:2.16.840.1.113883.4.4",
            "value": "21-3259825"
          }
        ],
        "active": true,
        "type": [
          {
            "coding": [
              {
                "system": "http://terminology.hl7.org/CodeSystem/organization-type",
                "code": "pay",
                "display": "Payer"
              }
            ]
          }
        ],
        "name": "Blue Cross Blue Shield of Texas",
        "telecom": [
          {
            "system": "phone",
            "value": "(+1) 972-766-6900"
          }
        ],
        "address": [
          {
            "use": "billing",
            "type": "postal",
            "line": [
              "P.O. Box 660044"
            ],
            "city": "Dallas",
            "state": "TX",
            "postalCode": "75266-0044",
            "country": "USA"
          }
        ]
      },
      "request": {
        "method": "PUT",
        "url": "Organization/c9cdd312-8372-4ee6-8080-3afe01f1df1f"
      }
    },
    {
      "fullUrl": "https://madie.cms.gov/Practitioner/a39f13da-c469-4698-8748-cb14f7c2bfdf",
      "resource": {
        "resourceType": "Practitioner",
        "id": "a39f13da-c469-4698-8748-cb14f7c2bfdf",
        "identifier": [
          {
            "system": "http://hl7.org/fhir/sid/us-npi",
            "value": "123456"
          }
        ],
        "name": [
          {
            "family": "Evil",
            "prefix": [
              "Dr"
            ]
          }
        ]
      },
      "request": {
        "method": "PUT",
        "url": "Practitioner/a39f13da-c469-4698-8748-cb14f7c2bfdf"
      }
    },
    {
      "fullUrl": "https://madie.cms.gov/MeasureReport/6151b1ee-e9a8-441c-8524-d64193d85fd8",
      "resource": {
        "resourceType": "MeasureReport",
        "id": "6151b1ee-e9a8-441c-8524-d64193d85fd8",
        "meta": {
          "profile": [
            "http://hl7.org/fhir/us/cqfmeasures/StructureDefinition/test-case-cqfm"
          ]
        },
        "contained": [
          {
            "resourceType": "Parameters",
            "id": "45128108-faac-4c32-958f-c06cc17a0dbf-parameters",
            "parameter": [
              {
                "name": "subject",
                "valueString": "0b412c73-184d-4224-aeac-91a87e40b4e6"
              }
            ]
          }
        ],
        "extension": [
          {
            "url": "http://hl7.org/fhir/us/cqfmeasures/StructureDefinition/cqfm-inputParameters",
            "valueReference": {
              "reference": "#45128108-faac-4c32-958f-c06cc17a0dbf-parameters"
            }
          },
          {
            "url": "http://hl7.org/fhir/us/cqfmeasures/StructureDefinition/cqfm-testCaseDescription",
            "valueMarkdown": "Estimated Gestational Age is 20 on 1st assessment, null on last.\n"
          }
        ],
        "modifierExtension": [
          {
            "url": "http://hl7.org/fhir/us/cqfmeasures/StructureDefinition/cqfm-isTestCase",
            "valueBoolean": true
          }
        ],
        "status": "complete",
        "type": "individual",
        "measure": "https://madie.cms.gov/Measure/SevereObstetricComplicationsFHIR",
        "period": {
          "start": "2024-01-01",
          "end": "2024-12-31"
        },
        "group": [
          {
            "population": [
              {
                "code": {
                  "coding": [
                    {
                      "system": "http://terminology.hl7.org/CodeSystem/measure-population",
                      "code": "initial-population",
                      "display": "Initial Population"
                    }
                  ]
                },
                "count": 1
              },
              {
                "code": {
                  "coding": [
                    {
                      "system": "http://terminology.hl7.org/CodeSystem/measure-population",
                      "code": "denominator",
                      "display": "Denominator"
                    }
                  ]
                },
                "count": 1
              },
              {
                "code": {
                  "coding": [
                    {
                      "system": "http://terminology.hl7.org/CodeSystem/measure-population",
                      "code": "denominator-exclusion",
                      "display": "Denominator Exclusion"
                    }
                  ]
                },
                "count": 0
              },
              {
                "code": {
                  "coding": [
                    {
                      "system": "http://terminology.hl7.org/CodeSystem/measure-population",
                      "code": "numerator",
                      "display": "Numerator"
                    }
                  ]
                },
                "count": 0
              }
            ]
          }
        ],
        "evaluatedResource": [
          {
            "reference": "Patient/0b412c73-184d-4224-aeac-91a87e40b4e6"
          },
          {
            "reference": "Observation/77f4b7a4-d571-4df5-b188-e5cece82ed26"
          },
          {
            "reference": "Observation/9dda3930-3f44-4979-bccf-64fdd9816262"
          },
          {
            "reference": "Observation/5be5d909-73c9-4a82-a0c3-9fc1fca69d8d"
          },
          {
            "reference": "Encounter/72000845-a377-4f42-9d12-f9288c138c25"
          },
          {
            "reference": "Coverage/edf01a2b-26c9-4b03-8b92-5fa063adf57b"
          },
          {
            "reference": "Procedure/71259ba2-5ced-4a40-9341-5e11f53bb4a6"
          },
          {
            "reference": "Organization/c9cdd312-8372-4ee6-8080-3afe01f1df1f"
          },
          {
            "reference": "Practitioner/a39f13da-c469-4698-8748-cb14f7c2bfdf"
          }
        ]
      },
      "request": {
        "method": "PUT",
        "url": "MeasureReport/6151b1ee-e9a8-441c-8524-d64193d85fd8"
      }
    }
  ]
}