{
  "resourceType": "Bundle",
  "id": "6129134902c62a011f2e6f51",
  "type": "transaction",
  "entry": [
    {
      "fullUrl": "https://madie.cms.gov/Patient/8f6e41bb-1e89-4272-a629-569c20a4bdd9",
      "resource": {
        "resourceType": "Patient",
        "id": "8f6e41bb-1e89-4272-a629-569c20a4bdd9",
        "meta": {
          "profile": [
            "http://hl7.org/fhir/us/qicore/StructureDefinition/qicore-patient"
          ]
        },
        "text": {
          "status": "generated",
          "div": "<div xmlns=\"http://www.w3.org/1999/xhtml\"><div class=\"hapiHeaderText\">CMOdurObs_ED&lt;1hrObs&gt;1hrBFEnc <b>DENEXFAIL </b></div><table class=\"hapiPropertyTable\"><tbody><tr><td>Identifier</td><td>a36fb0cf3d8cc0c3f179425073d57183763e3626e600c0e967bbfec7a918cee5</td></tr><tr><td>Date of birth</td><td><span>21 August 1994</span></td></tr></tbody></table></div>"
        },
        "extension": [
          {
            "url": "http://hl7.org/fhir/us/core/StructureDefinition/us-core-race",
            "extension": [
              {
                "url": "ombCategory",
                "valueCoding": {
                  "system": "urn:oid:2.16.840.1.113883.6.238",
                  "code": "1002-5",
                  "display": "American Indian or Alaska Native",
                  "userSelected": true
                }
              },
              {
                "url": "text",
                "valueString": "American Indian or Alaska Native"
              }
            ]
          },
          {
            "url": "http://hl7.org/fhir/us/core/StructureDefinition/us-core-ethnicity",
            "extension": [
              {
                "url": "ombCategory",
                "valueCoding": {
                  "system": "urn:oid:2.16.840.1.113883.6.238",
                  "code": "2135-2",
                  "display": "Hispanic or Latino",
                  "userSelected": true
                }
              },
              {
                "url": "text",
                "valueString": "Hispanic or Latino"
              }
            ]
          }
        ],
        "identifier": [
          {
            "type": {
              "coding": [
                {
                  "system": "http://terminology.hl7.org/CodeSystem/v2-0203",
                  "code": "MR"
                }
              ]
            },
            "system": "https://bonnie-fhir.healthit.gov/",
            "value": "6129134902c62a011f2e6f51"
          }
        ],
        "active": true,
        "name": [
          {
            "use": "usual",
            "family": "DENEXFail",
            "given": [
              "CMOdurObs_ED<1hrObs>1hrBFEnc"
            ]
          }
        ],
        "gender": "male",
        "birthDate": "1994-08-21"
      },
      "request": {
        "method": "PUT",
        "url": "Patient/8f6e41bb-1e89-4272-a629-569c20a4bdd9"
      }
    },
    {
      "fullUrl": "https://madie.cms.gov/Encounter/e0d4658d-7938-4818-b81b-df6c9e2ac896",
      "resource": {
        "resourceType": "Encounter",
        "id": "e0d4658d-7938-4818-b81b-df6c9e2ac896",
        "meta": {
          "profile": [
            "http://hl7.org/fhir/us/qicore/StructureDefinition/qicore-encounter"
          ]
        },
        "status": "finished",
        "class": {
          "system": "http://terminology.hl7.org/CodeSystem/v3-ActCode",
          "code": "EMER",
          "display": "emergency",
          "userSelected": true
        },
        "type": [
          {
            "coding": [
              {
                "system": "http://snomed.info/sct",
                "code": "4525004"
              }
            ]
          }
        ],
        "subject": {
          "reference": "Patient/8f6e41bb-1e89-4272-a629-569c20a4bdd9"
        },
        "period": {
          "start": "2025-10-10T07:30:00.000+00:00",
          "end": "2025-10-10T07:35:00.000+00:00"
        },
        "length": {
          "value": 0,
          "unit": "days"
        }
      },
      "request": {
        "method": "PUT",
        "url": "Encounter/e0d4658d-7938-4818-b81b-df6c9e2ac896"
      }
    },
    {
      "fullUrl": "https://madie.cms.gov/Encounter/7e4cb7df-ff08-490b-9d15-789ca147846a",
      "resource": {
        "resourceType": "Encounter",
        "id": "7e4cb7df-ff08-490b-9d15-789ca147846a",
        "meta": {
          "profile": [
            "http://hl7.org/fhir/us/qicore/StructureDefinition/qicore-encounter"
          ]
        },
        "status": "finished",
        "class": {
          "system": "http://terminology.hl7.org/CodeSystem/v3-ActCode",
          "code": "OBSENC",
          "display": "observation encounter",
          "userSelected": true
        },
        "type": [
          {
            "coding": [
              {
                "system": "http://snomed.info/sct",
                "code": "448851000124103"
              }
            ]
          }
        ],
        "subject": {
          "reference": "Patient/8f6e41bb-1e89-4272-a629-569c20a4bdd9"
        },
        "period": {
          "start": "2025-10-10T07:36:00.000+00:00",
          "end": "2025-10-10T09:00:00.000+00:00"
        },
        "length": {
          "value": 0,
          "unit": "days"
        }
      },
      "request": {
        "method": "PUT",
        "url": "Encounter/7e4cb7df-ff08-490b-9d15-789ca147846a"
      }
    },
    {
      "fullUrl": "https://madie.cms.gov/Encounter/bbb81ff5-3783-4ed2-906b-d8427bc56a26",
      "resource": {
        "resourceType": "Encounter",
        "id": "bbb81ff5-3783-4ed2-906b-d8427bc56a26",
        "meta": {
          "profile": [
            "http://hl7.org/fhir/us/qicore/StructureDefinition/qicore-encounter"
          ]
        },
        "status": "finished",
        "class": {
          "system": "http://terminology.hl7.org/CodeSystem/v3-ActCode",
          "code": "IMP",
          "display": "inpatient encounter",
          "userSelected": true
        },
        "type": [
          {
            "coding": [
              {
                "system": "http://snomed.info/sct",
                "code": "32485007"
              }
            ]
          }
        ],
        "subject": {
          "reference": "Patient/8f6e41bb-1e89-4272-a629-569c20a4bdd9"
        },
        "period": {
          "start": "2025-10-10T10:01:00.000+00:00",
          "end": "2025-10-12T10:30:00.000+00:00"
        },
        "length": {
          "value": 2,
          "unit": "days"
        },
        "diagnosis": [
          {
            "condition": {
              "reference": "Condition/4215af1e-bf22-46eb-b6a5-e33f47cc810e"
            },
            "use": {
              "coding": [
                {
                  "system": "http://terminology.hl7.org/CodeSystem/diagnosis-role",
                  "code": "billing",
                  "display": "Billing"
                }
              ]
            },
            "rank": 1
          }
        ]
      },
      "request": {
        "method": "PUT",
        "url": "Encounter/bbb81ff5-3783-4ed2-906b-d8427bc56a26"
      }
    },
    {
      "fullUrl": "https://madie.cms.gov/ServiceRequest/66b15216-172c-4bf8-a9a8-611151193fd9",
      "resource": {
        "resourceType": "ServiceRequest",
        "id": "66b15216-172c-4bf8-a9a8-611151193fd9",
        "meta": {
          "profile": [
            "http://hl7.org/fhir/us/qicore/StructureDefinition/qicore-servicerequest"
          ]
        },
        "status": "active",
        "intent": "order",
        "code": {
          "coding": [
            {
              "system": "http://snomed.info/sct",
              "code": "133918004"
            }
          ]
        },
        "subject": {
          "reference": "Patient/8f6e41bb-1e89-4272-a629-569c20a4bdd9"
        },
        "authoredOn": "2012-10-10T08:37:00+00:00"
      },
      "request": {
        "method": "PUT",
        "url": "ServiceRequest/66b15216-172c-4bf8-a9a8-611151193fd9"
      }
    },
    {
      "fullUrl": "https://madie.cms.gov/Condition/4215af1e-bf22-46eb-b6a5-e33f47cc810e",
      "resource": {
        "resourceType": "Condition",
        "id": "4215af1e-bf22-46eb-b6a5-e33f47cc810e",
        "meta": {
          "profile": [
            "http://hl7.org/fhir/us/qicore/StructureDefinition/qicore-condition"
          ]
        },
        "clinicalStatus": {
          "coding": [
            {
              "system": "http://terminology.hl7.org/CodeSystem/condition-clinical",
              "code": "active"
            }
          ]
        },
        "verificationStatus": {
          "coding": [
            {
              "system": "http://terminology.hl7.org/CodeSystem/condition-ver-status",
              "code": "confirmed"
            }
          ]
        },
        "category": [
          {
            "coding": [
              {
                "system": "http://terminology.hl7.org/CodeSystem/condition-category",
                "code": "encounter-diagnosis",
                "display": "Encounter Diagnosis"
              }
            ]
          }
        ],
        "code": {
          "coding": [
            {
              "system": "http://snomed.info/sct",
              "version": "2020-09",
              "code": "111297002",
              "display": "Nonparalytic stroke (disorder)",
              "userSelected": true
            }
          ]
        },
        "subject": {
          "reference": "Patient/8f6e41bb-1e89-4272-a629-569c20a4bdd9"
        },
        "recordedDate": "2025-07-14T08:00:00.000+00:00"
      },
      "request": {
        "method": "PUT",
        "url": "Condition/4215af1e-bf22-46eb-b6a5-e33f47cc810e"
      }
    },
    {
      "fullUrl": "https://madie.cms.gov/MeasureReport/2b02b622-d794-4574-8fe5-3124ae7f099c",
      "resource": {
        "resourceType": "MeasureReport",
        "id": "2b02b622-d794-4574-8fe5-3124ae7f099c",
        "meta": {
          "profile": [
            "http://hl7.org/fhir/us/cqfmeasures/StructureDefinition/test-case-cqfm"
          ]
        },
        "contained": [
          {
            "resourceType": "Parameters",
            "id": "ed2a8236-e115-408d-8182-750e603975a7-parameters",
            "parameter": [
              {
                "name": "subject",
                "valueString": "8f6e41bb-1e89-4272-a629-569c20a4bdd9"
              }
            ]
          }
        ],
        "extension": [
          {
            "url": "http://hl7.org/fhir/us/cqfmeasures/StructureDefinition/cqfm-inputParameters",
            "valueReference": {
              "reference": "#ed2a8236-e115-408d-8182-750e603975a7-parameters"
            }
          },
          {
            "url": "http://hl7.org/fhir/us/cqfmeasures/StructureDefinition/cqfm-testCaseDescription",
            "valueMarkdown": "\"Patient receives CMO during observation. ED ends 1 minute before observation. Obs ends 61 min before inpatient encounter start. Testing day of operator with HospitalizationWithObservation function."
          }
        ],
        "modifierExtension": [
          {
            "url": "http://hl7.org/fhir/us/cqfmeasures/StructureDefinition/cqfm-isTestCase",
            "valueBoolean": true
          }
        ],
        "status": "complete",
        "type": "individual",
        "measure": "https://madie.cms.gov/Measure/DischargedonAntithromboticTherapyFHIR",
        "period": {
          "start": "2025-01-01",
          "end": "2025-12-31"
        },
        "group": [
          {
            "population": [
              {
                "code": {
                  "coding": [
                    {
                      "system": "http://terminology.hl7.org/CodeSystem/measure-population",
                      "code": "initial-population",
                      "display": "Initial Population"
                    }
                  ]
                },
                "count": 1
              },
              {
                "code": {
                  "coding": [
                    {
                      "system": "http://terminology.hl7.org/CodeSystem/measure-population",
                      "code": "denominator",
                      "display": "Denominator"
                    }
                  ]
                },
                "count": 1
              },
              {
                "code": {
                  "coding": [
                    {
                      "system": "http://terminology.hl7.org/CodeSystem/measure-population",
                      "code": "denominator-exclusion",
                      "display": "Denominator Exclusion"
                    }
                  ]
                },
                "count": 0
              },
              {
                "code": {
                  "coding": [
                    {
                      "system": "http://terminology.hl7.org/CodeSystem/measure-population",
                      "code": "numerator",
                      "display": "Numerator"
                    }
                  ]
                },
                "count": 0
              },
              {
                "code": {
                  "coding": [
                    {
                      "system": "http://terminology.hl7.org/CodeSystem/measure-population",
                      "code": "denominator-exception",
                      "display": "Denominator Exception"
                    }
                  ]
                },
                "count": 0
              }
            ]
          }
        ],
        "evaluatedResource": [
          {
            "reference": "Patient/8f6e41bb-1e89-4272-a629-569c20a4bdd9"
          },
          {
            "reference": "Encounter/e0d4658d-7938-4818-b81b-df6c9e2ac896"
          },
          {
            "reference": "Encounter/7e4cb7df-ff08-490b-9d15-789ca147846a"
          },
          {
            "reference": "Encounter/bbb81ff5-3783-4ed2-906b-d8427bc56a26"
          },
          {
            "reference": "ServiceRequest/66b15216-172c-4bf8-a9a8-611151193fd9"
          },
          {
            "reference": "Condition/4215af1e-bf22-46eb-b6a5-e33f47cc810e"
          }
        ]
      },
      "request": {
        "method": "PUT",
        "url": "MeasureReport/2b02b622-d794-4574-8fe5-3124ae7f099c"
      }
    }
  ]
}