{
  "resourceType": "Bundle",
  "id": "6129134c02c62a011f2e70ac",
  "type": "transaction",
  "entry": [
    {
      "fullUrl": "https://madie.cms.gov/Patient/fe6e436e-6ff7-4f48-bec4-121bf4ca5d1f",
      "resource": {
        "resourceType": "Patient",
        "id": "fe6e436e-6ff7-4f48-bec4-121bf4ca5d1f",
        "meta": {
          "profile": [
            "http://hl7.org/fhir/us/qicore/StructureDefinition/qicore-patient"
          ]
        },
        "text": {
          "status": "generated",
          "div": "<div xmlns=\"http://www.w3.org/1999/xhtml\"><div class=\"hapiHeaderText\">CMOdurED_EDGT1hrNoObsBFEnc <b>DENEXPASS </b></div><table class=\"hapiPropertyTable\"><tbody><tr><td>Identifier</td><td>fad666e4c2c1dfdd2a733d377f721b1d97a846f6f50f3ff47ba2a0a21aa13fc6</td></tr><tr><td>Date of birth</td><td><span>21 August 1994</span></td></tr></tbody></table></div>"
        },
        "extension": [
          {
            "url": "http://hl7.org/fhir/us/core/StructureDefinition/us-core-race",
            "extension": [
              {
                "url": "ombCategory",
                "valueCoding": {
                  "system": "urn:oid:2.16.840.1.113883.6.238",
                  "code": "1002-5",
                  "display": "American Indian or Alaska Native",
                  "userSelected": true
                }
              },
              {
                "url": "text",
                "valueString": "American Indian or Alaska Native"
              }
            ]
          },
          {
            "url": "http://hl7.org/fhir/us/core/StructureDefinition/us-core-ethnicity",
            "extension": [
              {
                "url": "ombCategory",
                "valueCoding": {
                  "system": "urn:oid:2.16.840.1.113883.6.238",
                  "code": "2135-2",
                  "display": "Hispanic or Latino",
                  "userSelected": true
                }
              },
              {
                "url": "text",
                "valueString": "Hispanic or Latino"
              }
            ]
          }
        ],
        "identifier": [
          {
            "type": {
              "coding": [
                {
                  "system": "http://terminology.hl7.org/CodeSystem/v2-0203",
                  "code": "MR"
                }
              ]
            },
            "system": "https://bonnie-fhir.healthit.gov/",
            "value": "6129134c02c62a011f2e70ac"
          }
        ],
        "active": true,
        "name": [
          {
            "use": "usual",
            "family": "DENEXFail",
            "given": [
              "CMOdurED_EDGT1hrNoObsBFEnc"
            ]
          }
        ],
        "gender": "male",
        "birthDate": "1994-08-21"
      },
      "request": {
        "method": "PUT",
        "url": "Patient/fe6e436e-6ff7-4f48-bec4-121bf4ca5d1f"
      }
    },
    {
      "fullUrl": "https://madie.cms.gov/Encounter/cf5ace70-8648-4f4c-ac2d-7e2aac0dcd66",
      "resource": {
        "resourceType": "Encounter",
        "id": "cf5ace70-8648-4f4c-ac2d-7e2aac0dcd66",
        "meta": {
          "profile": [
            "http://hl7.org/fhir/us/qicore/StructureDefinition/qicore-encounter"
          ]
        },
        "status": "finished",
        "class": {
          "system": "http://terminology.hl7.org/CodeSystem/v3-ActCode",
          "code": "EMER",
          "display": "emergency",
          "userSelected": true
        },
        "type": [
          {
            "coding": [
              {
                "system": "http://snomed.info/sct",
                "code": "4525004"
              }
            ]
          }
        ],
        "subject": {
          "reference": "Patient/fe6e436e-6ff7-4f48-bec4-121bf4ca5d1f"
        },
        "period": {
          "start": "2025-10-10T09:30:00.000+00:00",
          "end": "2025-10-10T10:29:00.000+00:00"
        },
        "length": {
          "value": 0,
          "unit": "days"
        }
      },
      "request": {
        "method": "PUT",
        "url": "Encounter/cf5ace70-8648-4f4c-ac2d-7e2aac0dcd66"
      }
    },
    {
      "fullUrl": "https://madie.cms.gov/Encounter/77c65505-d14d-4c65-9a44-795e0258b678",
      "resource": {
        "resourceType": "Encounter",
        "id": "77c65505-d14d-4c65-9a44-795e0258b678",
        "meta": {
          "profile": [
            "http://hl7.org/fhir/us/qicore/StructureDefinition/qicore-encounter"
          ]
        },
        "status": "finished",
        "class": {
          "system": "http://terminology.hl7.org/CodeSystem/v3-ActCode",
          "code": "IMP",
          "display": "inpatient encounter",
          "userSelected": true
        },
        "type": [
          {
            "coding": [
              {
                "system": "http://snomed.info/sct",
                "code": "32485007"
              }
            ]
          }
        ],
        "subject": {
          "reference": "Patient/fe6e436e-6ff7-4f48-bec4-121bf4ca5d1f"
        },
        "period": {
          "start": "2025-10-10T11:30:00.000+00:00",
          "end": "2025-10-12T11:30:00.000+00:00"
        },
        "length": {
          "value": 2,
          "unit": "days"
        },
        "diagnosis": [
          {
            "condition": {
              "reference": "Condition/d508925d-bcdd-4c4a-98e0-7d3d2f29cf2b"
            },
            "use": {
              "coding": [
                {
                  "system": "http://terminology.hl7.org/CodeSystem/diagnosis-role",
                  "code": "billing",
                  "display": "Billing"
                }
              ]
            },
            "rank": 1
          }
        ]
      },
      "request": {
        "method": "PUT",
        "url": "Encounter/77c65505-d14d-4c65-9a44-795e0258b678"
      }
    },
    {
      "fullUrl": "https://madie.cms.gov/ServiceRequest/0dad604f-3ffa-4b85-ae61-ce1654b2b08c",
      "resource": {
        "resourceType": "ServiceRequest",
        "id": "0dad604f-3ffa-4b85-ae61-ce1654b2b08c",
        "meta": {
          "profile": [
            "http://hl7.org/fhir/us/qicore/StructureDefinition/qicore-servicerequest"
          ]
        },
        "status": "active",
        "intent": "order",
        "code": {
          "coding": [
            {
              "system": "http://snomed.info/sct",
              "code": "133918004"
            }
          ]
        },
        "subject": {
          "reference": "Patient/fe6e436e-6ff7-4f48-bec4-121bf4ca5d1f"
        },
        "authoredOn": "2025-10-10T09:30:00.000+00:00"
      },
      "request": {
        "method": "PUT",
        "url": "ServiceRequest/0dad604f-3ffa-4b85-ae61-ce1654b2b08c"
      }
    },
    {
      "fullUrl": "https://madie.cms.gov/Condition/d508925d-bcdd-4c4a-98e0-7d3d2f29cf2b",
      "resource": {
        "resourceType": "Condition",
        "id": "d508925d-bcdd-4c4a-98e0-7d3d2f29cf2b",
        "meta": {
          "profile": [
            "http://hl7.org/fhir/us/qicore/StructureDefinition/qicore-condition"
          ]
        },
        "clinicalStatus": {
          "coding": [
            {
              "system": "http://terminology.hl7.org/CodeSystem/condition-clinical",
              "code": "active"
            }
          ]
        },
        "verificationStatus": {
          "coding": [
            {
              "system": "http://terminology.hl7.org/CodeSystem/condition-ver-status",
              "code": "confirmed"
            }
          ]
        },
        "category": [
          {
            "coding": [
              {
                "system": "http://terminology.hl7.org/CodeSystem/condition-category",
                "code": "encounter-diagnosis",
                "display": "Encounter Diagnosis"
              }
            ]
          }
        ],
        "code": {
          "coding": [
            {
              "system": "http://snomed.info/sct",
              "version": "2020-09",
              "code": "111297002",
              "display": "Nonparalytic stroke (disorder)",
              "userSelected": true
            }
          ]
        },
        "subject": {
          "reference": "Patient/fe6e436e-6ff7-4f48-bec4-121bf4ca5d1f"
        },
        "recordedDate": "2025-07-14T08:00:00.000+00:00"
      },
      "request": {
        "method": "PUT",
        "url": "Condition/d508925d-bcdd-4c4a-98e0-7d3d2f29cf2b"
      }
    },
    {
      "fullUrl": "https://madie.cms.gov/Coverage/a11174a9-f620-463d-9518-e4776ac62895",
      "resource": {
        "resourceType": "Coverage",
        "id": "a11174a9-f620-463d-9518-e4776ac62895",
        "meta": {
          "profile": [
            "http://hl7.org/fhir/us/qicore/StructureDefinition/qicore-coverage"
          ]
        },
        "status": "active",
        "beneficiary": {
          "reference": "Patient/fe6e436e-6ff7-4f48-bec4-121bf4ca5d1f"
        },
        "payor": [
          {
            "reference": "Organization/bde4ee67-c1a2-4a46-b11d-1b49c18758be"
          }
        ]
      },
      "request": {
        "method": "PUT",
        "url": "Coverage/a11174a9-f620-463d-9518-e4776ac62895"
      }
    },
    {
      "fullUrl": "https://madie.cms.gov/Organization/bde4ee67-c1a2-4a46-b11d-1b49c18758be",
      "resource": {
        "resourceType": "Organization",
        "id": "bde4ee67-c1a2-4a46-b11d-1b49c18758be",
        "meta": {
          "profile": [
            "http://hl7.org/fhir/us/qicore/StructureDefinition/qicore-organization"
          ]
        },
        "identifier": [
          {
            "use": "temp",
            "system": "urn:oid:2.16.840.1.113883.4.4",
            "value": "21-3259825"
          }
        ],
        "active": true,
        "type": [
          {
            "coding": [
              {
                "system": "http://terminology.hl7.org/CodeSystem/organization-type",
                "code": "pay",
                "display": "Payer"
              }
            ]
          }
        ],
        "name": "Blue Cross Blue Shield of Texas",
        "telecom": [
          {
            "system": "phone",
            "value": "(+1) 972-766-6900"
          }
        ],
        "address": [
          {
            "use": "billing",
            "type": "postal",
            "line": [
              "P.O. Box 660044"
            ],
            "city": "Dallas",
            "state": "TX",
            "postalCode": "75266-0044",
            "country": "USA"
          }
        ]
      },
      "request": {
        "method": "PUT",
        "url": "Organization/bde4ee67-c1a2-4a46-b11d-1b49c18758be"
      }
    },
    {
      "fullUrl": "https://madie.cms.gov/MeasureReport/7bf792c0-536e-4bdb-a51d-6c3e86315f36",
      "resource": {
        "resourceType": "MeasureReport",
        "id": "7bf792c0-536e-4bdb-a51d-6c3e86315f36",
        "meta": {
          "profile": [
            "http://hl7.org/fhir/us/cqfmeasures/StructureDefinition/test-case-cqfm"
          ]
        },
        "contained": [
          {
            "resourceType": "Parameters",
            "id": "a99e16b0-322e-4d52-8d4b-3da03bf51791-parameters",
            "parameter": [
              {
                "name": "subject",
                "valueString": "fe6e436e-6ff7-4f48-bec4-121bf4ca5d1f"
              }
            ]
          }
        ],
        "extension": [
          {
            "url": "http://hl7.org/fhir/us/cqfmeasures/StructureDefinition/cqfm-inputParameters",
            "valueReference": {
              "reference": "#a99e16b0-322e-4d52-8d4b-3da03bf51791-parameters"
            }
          },
          {
            "url": "http://hl7.org/fhir/us/cqfmeasures/StructureDefinition/cqfm-testCaseDescription",
            "valueMarkdown": "Patient receives CMO during ED. ED ends 61 minute before inpatient encounter start. No Observation. Testing day of operator with HospitalizationWithObservation function."
          }
        ],
        "modifierExtension": [
          {
            "url": "http://hl7.org/fhir/us/cqfmeasures/StructureDefinition/cqfm-isTestCase",
            "valueBoolean": true
          }
        ],
        "status": "complete",
        "type": "individual",
        "measure": "https://madie.cms.gov/Measure/DischargedonAntithromboticTherapyFHIR",
        "period": {
          "start": "2025-01-01",
          "end": "2025-12-31"
        },
        "group": [
          {
            "population": [
              {
                "code": {
                  "coding": [
                    {
                      "system": "http://terminology.hl7.org/CodeSystem/measure-population",
                      "code": "initial-population",
                      "display": "Initial Population"
                    }
                  ]
                },
                "count": 1
              },
              {
                "code": {
                  "coding": [
                    {
                      "system": "http://terminology.hl7.org/CodeSystem/measure-population",
                      "code": "denominator",
                      "display": "Denominator"
                    }
                  ]
                },
                "count": 1
              },
              {
                "code": {
                  "coding": [
                    {
                      "system": "http://terminology.hl7.org/CodeSystem/measure-population",
                      "code": "denominator-exclusion",
                      "display": "Denominator Exclusion"
                    }
                  ]
                },
                "count": 0
              },
              {
                "code": {
                  "coding": [
                    {
                      "system": "http://terminology.hl7.org/CodeSystem/measure-population",
                      "code": "numerator",
                      "display": "Numerator"
                    }
                  ]
                },
                "count": 0
              },
              {
                "code": {
                  "coding": [
                    {
                      "system": "http://terminology.hl7.org/CodeSystem/measure-population",
                      "code": "denominator-exception",
                      "display": "Denominator Exception"
                    }
                  ]
                },
                "count": 0
              }
            ]
          }
        ],
        "evaluatedResource": [
          {
            "reference": "Patient/fe6e436e-6ff7-4f48-bec4-121bf4ca5d1f"
          },
          {
            "reference": "Encounter/cf5ace70-8648-4f4c-ac2d-7e2aac0dcd66"
          },
          {
            "reference": "Encounter/77c65505-d14d-4c65-9a44-795e0258b678"
          },
          {
            "reference": "ServiceRequest/0dad604f-3ffa-4b85-ae61-ce1654b2b08c"
          },
          {
            "reference": "Condition/d508925d-bcdd-4c4a-98e0-7d3d2f29cf2b"
          },
          {
            "reference": "Coverage/a11174a9-f620-463d-9518-e4776ac62895"
          },
          {
            "reference": "Organization/bde4ee67-c1a2-4a46-b11d-1b49c18758be"
          }
        ]
      },
      "request": {
        "method": "PUT",
        "url": "MeasureReport/7bf792c0-536e-4bdb-a51d-6c3e86315f36"
      }
    }
  ]
}